ACCX;ACCY;ACCZ;GYROX;GYROY;GYROZ;ANGLX;ANGLY;ANGLZ
0.02;-0.02;1.15;-0.00;0.26;-0.11;-0.02;1.88;-0.81
0.03;-0.02;1.15;-0.23;-0.07;-0.00;-0.05;1.82;-0.81
0.03;-0.02;1.14;0.05;0.07;0.12;-0.07;1.76;-0.80
0.02;-0.02;1.15;0.06;0.17;-0.00;-0.09;1.70;-0.80
0.03;-0.01;1.15;0.06;-0.09;0.09;-0.10;1.64;-0.80
0.03;-0.02;1.15;-0.02;0.45;-0.06;-0.12;1.58;-0.80
0.02;-0.03;1.15;-0.27;-0.22;0.12;-0.15;1.52;-0.80
0.02;-0.02;1.15;-0.27;-0.09;-0.06;-0.17;1.47;-0.80
0.03;-0.02;1.15;0.15;0.26;-0.09;-0.19;1.41;-0.80
0.02;-0.02;1.14;-0.02;0.13;-0.25;-0.21;1.37;-0.81
0.03;-0.03;1.14;0.15;0.91;0.07;-0.23;1.34;-0.81
0.03;-0.02;1.15;-0.37;-0.54;0.20;-0.25;1.27;-0.80
0.02;-0.03;1.16;-0.32;0.39;0.23;-0.28;1.23;-0.80
0.03;-0.02;1.14;0.09;0.00;-0.09;-0.29;1.18;-0.80
0.03;-0.02;1.15;0.35;0.05;-0.23;-0.30;1.13;-0.81
0.03;-0.03;1.14;0.11;-0.29;-0.03;-0.32;1.08;-0.81
0.03;-0.03;1.16;0.14;0.00;0.23;-0.33;1.03;-0.80
0.03;-0.02;1.15;-0.18;-0.27;-0.20;-0.35;0.98;-0.81
0.02;-0.02;1.14;-0.24;-0.06;-0.06;-0.38;0.93;-0.81
0.02;-0.02;1.15;0.03;-0.21;0.09;-0.38;0.89;-0.81
0.03;-0.03;1.14;0.03;-0.01;0.03;-0.40;0.84;-0.80
0.02;-0.02;1.15;0.15;-0.30;-0.14;-0.41;0.80;-0.81
0.03;-0.02;1.15;-0.23;0.39;0.32;-0.42;0.76;-0.80
0.03;-0.02;1.15;0.38;-0.10;0.15;-0.43;0.71;-0.80
0.03;-0.02;1.14;-0.03;-0.09;-0.25;-0.44;0.67;-0.80
0.02;-0.02;1.14;-0.00;-0.15;-0.00;-0.45;0.63;-0.80
0.03;-0.02;1.15;-0.00;0.25;0.01;-0.47;0.60;-0.80
0.03;-0.02;1.15;0.12;0.39;-0.34;-0.47;0.58;-0.82
0.03;-0.02;1.15;-0.05;-0.30;0.35;-0.49;0.53;-0.81
0.03;-0.02;1.14;-0.18;0.02;-0.17;-0.50;0.50;-0.81
0.02;-0.02;1.15;-0.02;-0.15;-0.20;-0.52;0.46;-0.82
0.02;-0.02;1.15;-0.37;0.19;-0.41;-0.54;0.43;-0.83
0.03;-0.02;1.15;-0.27;0.11;-0.35;-0.56;0.40;-0.84
0.03;-0.02;1.15;0.06;-0.15;0.15;-0.57;0.36;-0.83
0.02;-0.02;1.15;-0.09;-0.33;0.30;-0.58;0.32;-0.83
0.02;-0.02;1.14;0.03;-0.18;-0.03;-0.59;0.29;-0.83
0.03;-0.02;1.15;0.15;-0.21;-0.23;-0.59;0.25;-0.83
0.02;-0.03;1.15;-0.32;-0.09;-0.29;-0.61;0.23;-0.84
0.02;-0.02;1.15;0.20;-0.22;-0.20;-0.62;0.20;-0.85
0.03;-0.02;1.15;0.49;-0.32;0.17;-0.61;0.16;-0.84
0.02;-0.02;1.15;-0.06;0.00;-0.26;-0.62;0.13;-0.85
0.03;-0.02;1.15;-0.21;0.19;-0.14;-0.64;0.11;-0.85
0.03;-0.02;1.14;-0.12;-0.19;0.49;-0.65;0.07;-0.84
0.02;-0.02;1.15;0.11;-0.06;0.24;-0.65;0.04;-0.83
0.02;-0.03;1.15;0.31;0.26;-0.31;-0.66;0.03;-0.84
0.03;-0.02;1.14;0.23;-0.06;0.10;-0.66;-0.00;-0.84
0.02;-0.02;1.15;0.02;0.17;-0.05;-0.67;-0.02;-0.84
0.03;-0.02;1.15;0.09;0.20;-0.05;-0.67;-0.04;-0.84
0.03;-0.02;1.15;-0.14;-0.04;0.23;-0.68;-0.07;-0.84
0.02;-0.03;1.15;-0.02;0.46;0.26;-0.69;-0.07;-0.83
0.02;-0.03;1.15;-0.20;0.36;0.10;-0.72;-0.08;-0.83
0.03;-0.02;1.14;-0.08;-0.16;-0.08;-0.73;-0.12;-0.83
0.03;-0.02;1.15;-0.06;0.04;0.01;-0.74;-0.14;-0.83
0.02;-0.02;1.15;-0.00;0.34;0.07;-0.74;-0.16;-0.83
0.03;-0.02;1.15;-0.03;1.06;0.15;-0.75;-0.16;-0.82
0.03;-0.02;1.15;0.09;0.92;0.04;-0.75;-0.16;-0.82
0.03;-0.02;1.14;-0.40;-0.65;0.24;-0.77;-0.21;-0.82
0.02;-0.02;1.16;0.08;0.57;0.17;-0.77;-0.21;-0.81
0.03;-0.02;1.16;-0.37;-1.19;0.09;-0.79;-0.26;-0.81
0.02;-0.03;1.14;0.06;-0.16;0.03;-0.80;-0.28;-0.81
0.03;-0.02;1.15;-0.21;0.48;-0.02;-0.81;-0.28;-0.81
0.01;-0.03;1.15;-0.00;-0.19;0.10;-0.82;-0.30;-0.81
0.02;-0.02;1.16;0.02;-0.32;0.12;-0.82;-0.32;-0.80
0.03;-0.02;1.15;-0.31;-0.25;-0.16;-0.83;-0.35;-0.81
0.03;-0.02;1.15;-0.29;0.31;0.04;-0.85;-0.37;-0.81
0.02;-0.02;1.14;-0.12;-0.16;0.09;-0.85;-0.39;-0.80
0.03;-0.03;1.14;-0.12;-0.10;-0.17;-0.86;-0.41;-0.81
0.03;-0.02;1.15;-0.18;0.00;-0.02;-0.87;-0.43;-0.81
0.02;-0.02;1.14;0.24;0.33;0.07;-0.87;-0.44;-0.81
0.03;-0.02;1.15;0.12;-0.18;0.01;-0.87;-0.46;-0.81
0.03;-0.02;1.14;0.03;-0.16;0.39;-0.87;-0.48;-0.80
0.03;-0.02;1.15;-0.21;0.26;0.24;-0.88;-0.49;-0.79
0.03;-0.02;1.15;-0.08;-0.22;-0.48;-0.89;-0.51;-0.80
0.02;-0.02;1.15;0.05;0.16;-0.34;-0.89;-0.52;-0.81
0.03;-0.02;1.15;0.12;0.00;-0.20;-0.89;-0.54;-0.82
0.03;-0.02;1.14;0.31;0.14;0.04;-0.89;-0.55;-0.81
0.02;-0.02;1.15;0.26;-0.16;-0.16;-0.88;-0.57;-0.82
0.03;-0.02;1.15;-0.38;-0.21;0.33;-0.89;-0.59;-0.81
0.02;-0.02;1.15;-0.27;-0.30;0.10;-0.90;-0.61;-0.81
0.02;-0.02;1.14;0.03;0.23;0.24;-0.90;-0.61;-0.80
0.03;-0.02;1.15;0.46;0.55;-0.11;-0.88;-0.61;-0.81
0.00;-0.01;1.15;1.65;1.18;37.66;-0.83;-0.57;0.21
-0.02;-0.09;1.14;0.78;-0.93;15.45;-0.88;-0.56;0.63
0.03;-0.02;1.14;0.34;-0.93;4.32;-0.87;-0.60;0.74
0.04;-0.03;1.15;0.09;0.33;3.05;-0.89;-0.61;0.89
0.03;-0.02;1.15;-0.52;0.88;0.15;-0.90;-0.60;0.89
0.02;-0.02;1.15;-0.26;1.18;-0.03;-0.91;-0.57;0.89
0.03;-0.02;1.15;0.34;0.89;-0.60;-0.91;-0.57;0.87
0.03;-0.02;1.14;0.06;-0.88;-0.08;-0.91;-0.61;0.87
0.03;-0.03;1.15;-0.11;-0.13;0.12;-0.92;-0.63;0.88
0.03;-0.02;1.15;0.15;-0.38;0.26;-0.92;-0.66;0.88
0.03;-0.03;1.14;0.38;0.25;0.04;-0.92;-0.66;0.88
0.03;-0.02;1.14;0.21;-0.35;-0.38;-0.91;-0.69;0.87
0.02;-0.02;1.14;-0.00;-0.24;-0.02;-0.91;-0.70;0.87
-0.05;0.02;1.14;1.37;1.64;34.97;-0.83;-0.60;1.82
0.06;-0.02;1.15;1.42;0.08;41.51;-0.80;-0.65;2.90
0.03;-0.02;1.16;1.45;-1.20;44.53;-0.76;-0.70;4.14
0.00;-0.01;1.18;1.30;-1.38;45.23;-0.72;-0.72;5.37
0.03;0.00;1.14;1.98;0.13;70.03;-0.65;-0.74;7.19
0.03;0.02;1.15;4.78;-0.38;114.17;-0.49;-0.76;10.27
0.10;-0.07;1.14;5.10;0.04;167.05;-0.39;-0.85;15.45
0.06;-0.00;1.12;6.43;-0.45;182.70;-0.22;-0.90;20.20
0.02;0.02;1.15;7.27;-1.37;181.68;-0.01;-0.93;25.10
-0.00;0.03;1.13;7.86;-0.53;198.53;0.23;-0.93;30.46
0.04;0.10;1.15;9.11;-0.33;230.73;0.55;-0.95;36.46
0.04;0.03;1.19;10.40;-0.25;262.44;0.84;-0.98;43.55
-0.07;0.01;1.23;11.16;-4.09;257.51;1.13;-1.01;50.50
-0.05;-0.01;1.13;11.30;-6.90;279.54;1.39;-1.12;58.05
-0.14;0.07;1.37;11.94;-8.04;309.05;1.73;-1.20;66.39
-0.10;0.08;1.17;11.63;-0.10;309.00;2.08;-1.09;74.74
0.04;-0.07;1.08;12.18;-1.38;312.67;2.32;-1.15;84.12
0.13;-0.10;1.08;12.35;-0.16;295.91;2.52;-1.25;92.40
0.13;-0.04;0.95;12.11;-1.52;283.98;2.74;-1.42;99.78
0.00;0.01;1.21;10.72;-3.69;288.32;2.98;-1.49;107.57
-0.01;0.00;1.15;13.21;-2.24;308.44;3.28;-1.51;116.21
-0.18;-0.01;1.37;13.44;-12.01;318.18;3.55;-1.64;124.48
0.07;-0.01;1.05;12.02;-3.75;302.87;3.78;-1.79;132.66
-0.00;-0.02;1.03;14.26;3.41;288.50;4.06;-1.66;140.45
-0.02;-0.03;1.26;8.76;-4.97;234.38;4.18;-1.74;146.54
0.04;-0.11;1.08;9.33;-4.35;238.15;4.27;-1.88;153.92
0.02;-0.01;1.23;9.07;-4.71;241.25;4.40;-1.97;160.19
0.20;-0.04;0.96;7.88;-7.45;224.44;4.47;-2.35;166.03
-0.10;-0.04;1.23;8.23;-4.85;199.92;4.57;-2.34;171.43
-0.08;-0.00;1.08;8.44;1.12;200.64;4.69;-2.19;176.64
0.11;-0.05;1.19;6.64;-2.42;181.48;4.73;-2.31;181.54
0.09;-0.10;1.08;4.79;4.31;147.89;4.66;-2.24;185.54
0.02;-0.04;1.20;4.24;-1.86;108.55;4.63;-2.26;188.36
0.02;-0.06;1.11;2.64;2.43;57.60;4.56;-2.16;189.97
-0.01;-0.05;1.19;1.10;-0.09;42.06;4.44;-2.12;191.11
0.01;-0.04;1.14;1.04;0.42;10.20;4.35;-2.08;191.41
-0.01;-0.04;1.15;-0.27;-1.61;-0.12;4.21;-2.07;191.41
0.03;-0.03;1.15;-0.11;-0.41;0.17;4.09;-2.06;191.41
0.03;-0.03;1.15;-0.35;0.08;0.03;3.98;-2.05;191.42
0.06;-0.03;1.15;-0.47;-1.31;-6.63;3.85;-2.11;191.24
0.03;0.00;1.15;-0.95;1.35;-19.47;3.75;-2.06;190.71
0.04;-0.02;1.18;-2.98;0.42;-68.41;3.58;-2.05;188.86
0.05;-0.10;1.12;-3.83;7.53;-141.53;3.31;-1.85;184.90
0.19;-0.08;0.73;-30.79;-22.45;-258.12;2.35;-2.65;178.19
0.02;0.02;1.05;-8.46;0.29;-209.32;2.10;-2.62;172.33
0.05;0.00;1.26;-7.08;-5.64;-149.48;1.85;-2.77;167.84
0.11;-0.03;1.17;-2.31;3.81;-46.66;1.73;-2.73;166.63
0.02;-0.02;1.17;-0.46;-2.07;-0.12;1.67;-2.75;166.63
0.04;-0.03;1.14;0.31;0.91;-0.09;1.62;-2.68;166.62
0.05;-0.02;1.13;-0.06;1.59;-0.03;1.56;-2.63;166.62
0.03;-0.02;1.14;-0.03;0.77;-0.31;1.51;-2.59;166.61
0.04;-0.01;1.14;0.37;0.39;-0.02;1.49;-2.57;166.61
0.02;-0.05;1.14;-0.18;0.98;6.30;1.40;-2.51;166.78
0.02;-0.03;1.15;-0.40;-0.25;0.62;1.34;-2.49;166.80
0.03;-0.02;1.14;-0.12;0.34;0.71;1.29;-2.46;166.82
0.03;-0.03;1.14;-1.27;-1.49;-13.91;1.19;-2.48;166.39
0.03;-0.01;1.21;-1.98;-2.18;-19.90;1.11;-2.51;165.87
0.05;-0.01;1.15;0.09;1.81;-5.42;1.08;-2.46;165.72
0.03;-0.02;1.14;0.02;0.69;-2.23;1.04;-2.42;165.66
0.04;-0.30;1.12;-1.16;-1.45;-6.35;0.69;-2.45;165.50
0.33;-0.26;0.78;-2.35;5.71;-63.76;0.36;-2.60;163.78
0.05;-0.09;1.04;-5.98;4.16;-152.14;0.11;-2.49;159.82
0.01;-0.16;1.22;-5.65;-2.73;-119.29;-0.20;-2.52;156.48
-0.06;-0.11;1.22;-6.64;8.55;-228.28;-0.47;-2.19;150.32
0.06;-0.21;1.16;-9.08;9.82;-352.71;-1.02;-1.80;135.86
-0.03;-0.14;1.10;-12.27;1.64;-418.52;-1.45;-1.69;124.98
-0.25;0.02;1.16;-14.35;-0.41;-420.86;-1.79;-1.43;113.61
-0.01;-0.04;1.15;-14.66;2.95;-401.19;-2.18;-1.31;102.78
0.24;0.19;1.07;-13.54;12.08;-479.54;-2.31;-1.19;90.31
0.15;0.09;1.11;-8.66;15.17;-466.08;-2.41;-0.91;77.73
-0.21;-0.02;1.24;-14.09;-12.45;-404.67;-2.74;-1.01;67.21
-0.08;-0.11;1.14;-12.35;-9.86;-283.00;-3.12;-1.19;59.28
-0.24;-0.18;1.22;-18.11;-26.41;-220.45;-3.68;-1.68;53.33
-0.03;-0.03;1.22;-10.03;3.03;-259.82;-3.93;-1.53;45.54
0.01;0.00;1.07;-9.47;2.05;-228.20;-4.10;-1.45;39.38
-0.01;0.14;1.04;1.82;0.62;-146.22;-3.81;-1.40;35.43
0.06;0.11;1.13;-0.05;5.91;-47.71;-3.64;-1.27;34.14
-0.01;-0.10;1.15;-0.67;-0.39;7.83;-3.68;-1.24;34.35
0.03;-0.19;1.11;-4.82;13.90;-0.78;-3.93;-0.88;34.33
0.18;0.22;1.09;15.73;4.07;0.78;-3.25;-0.91;34.35
0.06;-0.04;1.15;-3.24;-15.75;-48.63;-3.31;-1.37;33.04
0.03;0.00;1.17;-1.31;-0.45;-51.15;-3.28;-1.38;31.66
0.01;-0.09;1.13;-0.50;-0.58;-27.06;-3.31;-1.38;30.95
0.02;0.06;1.15;0.31;1.93;-22.23;-3.17;-1.32;30.29
0.03;0.01;1.14;0.50;5.00;-15.87;-3.09;-1.18;29.84
0.04;-0.07;1.14;0.26;3.13;-21.15;-3.09;-1.12;29.29
0.01;-0.05;1.15;-0.55;-0.19;-14.60;-3.09;-1.11;28.90
-0.06;0.06;1.19;-1.01;0.04;-22.23;-3.00;-1.04;28.32
0.04;0.01;1.14;0.93;5.00;-26.89;-2.91;-0.92;27.59
0.03;-0.01;1.14;0.40;0.83;-13.41;-2.85;-0.92;27.23
0.02;-0.02;1.15;0.09;1.56;-10.03;-2.81;-0.88;26.97
0.03;-0.01;1.14;-0.26;0.92;-18.16;-2.77;-0.87;26.46
0.02;-0.02;1.15;0.27;2.68;-13.67;-2.73;-0.80;26.09
0.02;-0.02;1.15;-0.15;1.49;-13.42;-2.70;-0.76;25.69
0.02;-0.02;1.16;-1.50;-3.00;-12.37;-2.71;-0.84;25.36
0.02;-0.02;1.15;-0.72;-0.82;-15.36;-2.69;-0.86;24.94
0.02;-0.02;1.16;-1.16;-1.14;-21.62;-2.69;-0.89;24.38
0.02;-0.02;1.15;-1.36;-3.17;-14.58;-2.69;-0.97;23.99
0.02;-0.02;1.15;-0.12;0.08;-12.74;-2.66;-0.97;23.64
0.01;-0.03;1.15;-0.40;-0.44;-12.92;-2.65;-0.97;23.29
0.02;-0.02;1.15;-0.85;-2.04;-13.85;-2.64;-1.03;22.92
0.02;-0.01;1.14;-0.55;0.29;-19.82;-2.61;-1.02;22.38
0.02;-0.01;1.16;-0.90;0.36;-25.56;-2.59;-1.02;21.62
0.01;-0.03;1.15;-0.29;2.81;-47.56;-2.58;-0.93;20.33
0.02;-0.03;1.14;-1.02;2.48;-54.52;-2.58;-0.87;18.92
0.02;-0.04;1.16;-1.40;1.32;-67.62;-2.60;-0.84;17.09
0.04;-0.03;1.13;-3.56;-2.96;-88.19;-2.76;-1.01;12.68
0.02;-0.05;1.15;-3.22;-1.48;-99.24;-2.84;-1.04;10.00
0.07;-0.05;1.14;-3.63;0.58;-117.33;-2.92;-1.07;6.95
0.14;-0.10;1.16;-3.16;6.54;-162.78;-3.04;-1.00;2.55
0.09;-0.06;1.15;-3.28;8.05;-222.09;-3.12;-0.85;-3.44
-0.14;-0.08;1.16;-10.90;-6.09;-243.24;-3.40;-0.86;-9.77
0.05;-0.07;1.16;15.95;43.32;-290.54;-2.92;0.43;-18.77
0.01;-0.04;1.14;-15.91;-15.61;-303.24;-3.32;0.00;-26.96
-0.06;-0.10;1.22;-8.24;-3.35;-324.83;-3.55;-0.03;-35.41
-0.26;-0.20;1.14;-4.52;4.43;-253.45;-3.76;0.31;-42.25
0.02;-0.12;1.14;-16.03;-4.82;-355.68;-4.25;0.15;-52.21
0.00;-0.04;1.17;-13.65;-6.58;-353.16;-4.55;-0.02;-61.39
-0.04;-0.05;1.15;-11.44;2.42;-342.03;-4.82;0.08;-70.97
-0.11;-0.14;1.20;-9.76;2.42;-363.16;-5.10;0.23;-80.41
-0.04;-0.02;1.19;-9.53;3.88;-351.90;-5.27;0.37;-89.91
-0.04;0.02;1.16;-10.05;0.86;-331.77;-5.44;0.43;-99.86
-0.10;-0.08;1.14;-5.82;3.01;-330.12;-5.55;0.59;-108.45
-0.10;-0.02;1.23;-6.72;1.81;-332.60;-5.63;0.72;-117.43
0.15;0.03;1.12;-2.34;6.77;-331.73;-5.56;0.74;-126.72
0.03;0.04;1.11;-11.30;-6.94;-313.68;-5.70;0.52;-134.87
-0.04;-0.06;1.15;-9.92;-3.34;-321.06;-5.91;0.46;-143.54
0.02;-0.07;1.12;-6.56;1.75;-308.61;-6.04;0.47;-151.87
-0.21;-0.02;1.20;-4.61;5.52;-313.24;-6.05;0.80;-160.02
-0.13;0.02;1.13;-1.21;10.65;-270.54;-5.95;1.19;-167.32
0.01;-0.08;1.15;-10.21;-6.99;-239.22;-6.22;0.95;-174.74
-0.00;0.05;1.16;-6.34;-1.92;-230.80;-6.21;0.89;-180.74
-0.12;0.16;1.15;-3.68;-1.89;-171.22;-6.04;0.92;-185.53
-0.05;0.07;1.16;-2.03;-1.72;-125.30;-5.90;0.90;-188.92
-0.01;0.02;1.15;-2.69;-2.97;-90.11;-5.84;0.81;-191.35
-0.01;0.04;1.12;-2.40;-2.68;-60.89;-5.75;0.74;-192.99
-0.08;0.06;1.14;-0.50;-0.42;-19.42;-5.59;0.78;-193.50
0.02;-0.02;1.15;0.81;0.51;0.41;-5.48;0.76;-193.49
-0.01;-0.02;1.14;0.73;2.33;2.91;-5.36;0.82;-193.41
-0.03;-0.01;1.14;0.98;1.38;28.90;-5.24;0.86;-192.66
-0.06;0.01;1.15;3.28;2.54;77.54;-5.03;0.98;-190.17
0.05;-0.01;1.13;2.38;-0.44;114.58;-4.88;0.90;-186.97
0.04;0.01;1.10;4.46;1.76;164.17;-4.65;0.89;-182.70
-0.02;0.03;1.14;7.37;3.85;200.47;-4.33;0.99;-177.29
-0.16;0.03;1.15;13.88;16.29;264.27;-3.83;1.57;-169.89
-0.03;-0.05;1.14;8.46;6.58;333.39;-3.59;1.74;-161.22
-0.02;-0.03;1.15;9.05;3.78;356.90;-3.30;1.82;-151.22
-0.09;-0.01;1.16;8.40;6.83;383.13;-3.03;2.05;-141.26
-0.02;0.00;1.15;6.02;-0.58;435.81;-2.81;2.01;-129.50
0.01;-0.01;1.13;9.25;6.49;409.83;-2.49;2.16;-116.79
-0.10;-0.02;1.15;11.71;12.95;422.84;-2.15;2.56;-105.38
-0.13;-0.11;1.13;8.03;6.31;435.69;-1.99;2.79;-93.61
-0.07;-0.06;1.19;2.50;-6.06;386.78;-1.94;2.65;-83.17
0.05;-0.11;1.10;-0.55;-8.13;366.04;-2.03;2.34;-73.65
-0.04;-0.01;1.20;5.34;1.21;342.73;-1.86;2.36;-64.40
-0.09;0.12;1.03;8.95;9.97;364.21;-1.46;2.68;-54.20
-0.05;0.03;1.20;11.85;10.48;405.92;-1.10;2.94;-43.65
0.19;-0.22;1.09;15.62;23.49;395.59;-0.86;3.34;-32.96
-0.11;-0.06;1.06;4.23;1.10;330.46;-0.79;3.42;-23.71
-0.02;-0.14;1.13;1.02;-1.46;350.93;-0.88;3.32;-13.54
0.04;0.11;1.09;1.04;-4.83;349.63;-0.73;3.08;-4.10
0.07;-0.18;1.17;4.78;6.46;228.06;-0.75;3.14;2.06
0.04;-0.15;1.14;-0.58;-2.16;146.07;-0.90;2.98;5.86
0.09;-0.18;1.16;0.61;-0.25;87.54;-1.02;2.83;8.31
-0.01;-0.01;1.15;-0.61;-0.96;-0.22;-1.04;2.74;8.30
0.08;-0.01;1.14;-3.77;-6.76;-6.52;-1.13;2.43;8.12
-0.00;-0.02;1.15;-3.44;-5.51;-17.12;-1.22;2.24;7.68
0.10;-0.04;1.14;-0.15;1.17;-27.61;-1.24;2.13;6.93
-0.00;-0.00;1.15;-1.76;-2.25;-37.38;-1.26;2.03;5.92
-0.01;-0.01;1.16;-4.09;-6.94;-31.30;-1.36;1.79;4.99
-0.00;-0.01;1.15;-3.15;-6.94;-29.96;-1.43;1.57;4.18
0.02;-0.03;1.14;-3.65;-8.00;-28.05;-1.52;1.32;3.45
-0.24;0.07;1.14;-17.65;-27.03;-13.27;-1.90;0.81;3.09
0.01;-0.02;1.15;-2.92;-6.93;-0.40;-1.96;0.60;3.08
0.03;-0.03;1.15;2.06;7.84;-16.54;-1.89;0.75;2.65
0.02;-0.01;1.16;3.40;9.97;-18.52;-1.77;0.98;2.15
0.05;-0.01;1.15;4.76;12.20;-44.31;-1.62;1.23;0.95
0.02;-0.03;1.14;3.21;6.52;-64.32;-1.53;1.35;-0.72
-0.04;-0.02;1.21;-9.62;-16.74;-60.23;-1.81;0.85;-2.59
-0.01;-0.01;1.15;-0.26;2.20;-46.08;-1.79;0.91;-3.83
-0.01;-0.01;1.15;-1.73;-3.29;-22.49;-1.81;0.81;-4.42
0.01;-0.02;1.14;2.37;7.33;-22.55;-1.72;0.98;-5.05
0.00;-0.02;1.14;3.42;7.39;-10.29;-1.61;1.16;-5.33
-0.04;-0.01;1.20;-1.85;-3.48;-3.19;-1.64;1.08;-5.41
0.02;-0.02;1.15;5.74;10.97;-0.25;-1.46;1.34;-5.42
-0.00;-0.01;1.14;4.84;7.20;0.21;-1.32;1.49;-5.41
-0.00;-0.01;1.14;3.50;4.94;0.32;-1.21;1.60;-5.40
-0.00;-0.01;1.16;0.69;1.35;0.27;-1.18;1.60;-5.39
0.00;-0.01;1.16;0.69;3.35;-0.58;-1.15;1.67;-5.41
-0.01;-0.01;1.16;4.69;7.50;0.15;-1.02;1.84;-5.41
0.01;-0.01;1.15;1.31;3.79;-0.31;-0.97;1.90;-5.42
0.01;-0.01;1.15;2.69;4.71;-0.00;-0.90;1.97;-5.42
-0.01;-0.01;1.13;-1.13;-1.14;-0.08;-0.92;1.92;-5.42
0.01;-0.01;1.12;-2.99;-4.71;0.42;-0.98;1.75;-5.41
0.07;-0.03;1.16;-9.73;-12.71;-6.03;-1.24;1.32;-5.56
-0.01;-0.01;1.15;2.64;3.79;-26.86;-1.15;1.41;-6.32
0.02;-0.02;1.14;0.50;1.94;-32.46;-1.13;1.41;-7.16
-0.03;-0.00;1.15;1.18;0.34;-42.20;-1.08;1.42;-8.30
-0.09;0.01;1.14;-6.00;-11.63;-2.05;-1.23;1.14;-8.36
0.04;-0.03;1.15;-4.85;-6.56;-7.61;-1.36;0.91;-8.57
-0.01;-0.00;1.14;0.70;3.55;-7.77;-1.32;0.99;-8.78
-0.00;-0.02;1.16;1.08;1.97;0.26;-1.28;1.03;-8.77
-0.16;0.05;1.15;2.85;5.96;24.93;-1.13;1.31;-8.12
0.01;0.08;1.13;-3.39;-4.58;79.51;-1.12;1.15;-5.97
0.09;0.15;1.14;3.51;1.39;159.25;-0.86;1.09;-1.67
0.06;0.11;1.17;10.34;8.84;274.87;-0.48;1.24;5.47
0.03;0.12;1.15;6.43;-1.40;383.00;-0.18;1.16;15.81
0.07;0.26;1.12;5.47;-3.52;427.89;0.20;0.99;26.94
-0.10;0.09;1.18;-12.81;-43.14;481.71;-0.10;-0.21;41.39
-0.12;-0.02;1.15;13.36;-8.01;502.61;0.24;-0.30;54.96
-0.26;0.05;1.10;22.55;18.46;502.61;0.85;0.43;68.03
-0.57;0.21;1.18;-5.19;-47.11;502.61;0.83;-0.43;82.10
-0.03;-0.11;1.22;20.18;16.89;502.61;1.24;0.05;95.67
-0.67;0.43;1.56;34.75;45.27;502.61;2.33;1.57;108.74
0.02;-0.35;1.19;8.93;-22.19;502.61;2.21;0.92;122.81
-0.06;-0.13;1.15;17.31;11.49;451.25;2.50;1.26;135.00
-0.37;0.05;1.42;9.22;-11.75;414.42;2.72;1.22;145.77
-0.12;-0.08;1.37;10.96;5.76;341.52;2.89;1.44;154.99
0.00;0.01;1.17;7.36;-0.53;233.55;3.13;1.38;164.33
0.08;-0.08;1.09;10.61;11.96;175.81;3.26;1.59;168.91
-0.02;-0.20;1.17;13.21;15.53;118.13;3.37;1.99;172.21
0.03;-0.09;1.16;-4.70;-7.63;40.32;2.98;1.55;174.27
0.00;-0.06;1.15;4.64;9.17;11.02;2.99;1.77;174.58
0.01;-0.01;1.16;0.35;-1.05;-0.22;2.93;1.69;174.57
0.01;-0.01;1.15;-1.98;-3.83;0.52;2.81;1.54;174.59
0.00;-0.01;1.14;-6.32;-10.67;4.13;2.58;1.23;174.70
0.03;-0.02;1.15;-3.02;-8.48;0.52;2.43;0.95;174.71
0.02;-0.02;1.15;1.51;-1.20;-0.37;2.40;0.88;174.70
0.03;-0.02;1.14;-0.79;-3.03;0.17;2.31;0.75;174.71
0.09;-0.04;1.16;0.99;0.52;-1.88;2.25;0.65;174.66
0.02;-0.02;1.12;-2.56;-4.94;-7.16;2.12;0.49;174.46
0.03;-0.04;1.18;-7.86;-14.53;-19.94;1.84;0.07;173.93
0.06;-0.03;1.16;-3.18;-6.03;-36.20;1.69;-0.14;172.98
0.08;-0.08;1.13;-2.31;0.83;-69.33;1.52;-0.19;171.11
0.16;-0.06;1.10;-1.31;10.71;-120.86;1.40;-0.06;167.85
-0.06;-0.03;1.27;-1.45;3.04;-143.56;1.31;0.07;164.12
-0.09;-0.19;1.11;-7.36;-9.90;-117.80;0.90;-0.11;160.94
0.02;-0.13;1.15;-8.46;-4.80;-167.85;0.50;-0.28;155.73
-0.05;-0.03;1.22;-8.20;-1.42;-223.71;0.24;-0.27;149.69
0.04;-0.14;1.03;-11.33;-4.16;-270.20;-0.21;-0.41;142.40
0.00;-0.10;1.09;-15.51;-4.53;-335.29;-0.73;-0.52;133.34
0.04;-0.12;1.21;-15.74;-0.21;-391.94;-1.23;-0.55;122.76
-0.07;-0.06;1.15;-17.80;2.75;-456.96;-1.76;-0.40;109.97
-0.19;0.01;1.19;-18.35;-0.85;-463.24;-2.18;-0.23;97.92
0.01;0.01;1.12;-17.27;2.37;-466.96;-2.60;-0.18;84.85
0.25;-0.10;1.08;-20.72;0.23;-497.93;-3.18;-0.40;71.40
-0.17;-0.11;1.11;-24.99;0.54;-497.93;-3.85;-0.22;58.46
-0.10;0.05;1.08;-20.61;4.19;-497.93;-4.32;0.01;43.52
-0.00;-0.00;1.06;-16.87;7.53;-477.99;-4.69;0.21;30.61
-0.19;0.02;1.36;-15.16;4.81;-452.34;-4.96;0.48;18.85
-0.05;0.15;1.18;-15.36;-2.71;-417.87;-5.14;0.44;7.15
-0.01;0.10;1.18;-9.34;6.66;-349.83;-5.19;0.61;-2.29
-0.09;-0.03;1.15;-4.44;8.77;-281.00;-5.22;0.91;-9.60
-0.02;0.04;1.09;-3.92;10.49;-212.09;-5.18;1.19;-15.32
0.07;0.20;1.19;-6.98;-12.64;-120.03;-5.07;0.79;-18.45
0.04;0.14;1.14;-3.31;-0.50;-73.94;-4.92;0.73;-20.52
-0.00;-0.00;1.15;-0.34;3.78;-43.91;-4.83;0.83;-21.83
0.02;0.02;1.16;-1.48;-3.81;-23.25;-4.76;0.69;-22.44
0.00;0.02;1.14;-0.58;-4.03;-5.07;-4.66;0.57;-22.58
0.02;-0.02;1.13;0.14;-0.62;0.12;-4.58;0.52;-22.57
0.02;-0.02;1.14;0.34;0.14;0.10;-4.50;0.50;-22.57
0.02;-0.02;1.15;-0.50;-2.33;0.20;-4.45;0.41;-22.56
0.01;-0.02;1.15;-0.92;-2.88;0.76;-4.40;0.31;-22.54
-0.04;0.02;1.15;-3.68;-16.01;41.28;-4.39;-0.06;-21.47
-0.06;0.06;1.16;0.75;-6.74;76.00;-4.22;-0.18;-19.42
0.03;0.07;1.15;4.53;-7.48;166.18;-3.96;-0.40;-15.10
0.04;0.07;1.19;12.24;-4.93;334.35;-3.47;-0.57;-5.40
0.04;0.13;1.17;18.15;0.55;460.09;-2.78;-0.58;7.48
-0.32;0.12;1.22;21.54;-0.07;502.61;-2.09;-0.30;20.55
-0.24;0.19;1.18;24.15;3.53;502.61;-1.26;-0.00;34.12
0.10;0.01;1.11;24.09;16.75;502.61;-0.56;0.36;48.19
-0.30;-0.20;1.02;31.79;32.52;502.61;0.09;1.45;61.26
-0.30;0.22;1.09;14.87;5.00;502.61;0.66;1.81;74.83
0.16;-0.41;0.95;-11.91;-8.29;502.61;-0.09;1.41;88.90
-0.08;0.09;1.25;5.39;-3.06;502.61;0.13;1.37;101.97
0.23;-0.25;1.12;8.12;0.29;502.61;0.13;1.16;115.54
0.18;-0.31;1.19;6.20;3.75;343.20;0.06;1.12;126.18
-0.11;-0.04;1.10;-6.18;-4.97;271.37;-0.14;1.08;133.24
-0.12;-0.12;1.15;16.72;26.84;280.26;0.22;1.90;141.08
-0.01;-0.15;1.17;4.02;6.48;159.11;0.27;2.20;149.20
0.05;-0.08;1.06;-0.11;-1.29;71.46;0.18;2.07;151.27
-0.10;-0.07;1.15;-0.32;-1.55;20.65;0.10;2.09;151.81
0.00;-0.01;1.14;0.52;-0.73;-0.02;0.11;2.02;151.81
0.00;-0.01;1.11;1.53;0.23;0.61;0.14;1.98;151.82
0.01;-0.01;1.15;-1.79;-3.66;-0.17;0.08;1.85;151.82
0.01;-0.02;1.17;-2.49;-7.89;-9.54;-0.01;1.56;151.53
0.03;-0.01;1.14;0.60;-4.45;-13.10;0.00;1.38;151.17
0.06;-0.06;1.14;-4.27;-8.82;-48.84;-0.17;1.08;149.90
0.10;-0.15;1.16;-1.47;0.07;-118.29;-0.34;0.97;146.70
0.05;-0.14;1.32;-0.64;0.25;-198.66;-0.47;0.92;141.14
0.27;-0.15;0.85;-13.05;-7.14;-252.06;-0.94;0.41;134.59
-0.04;-0.03;1.01;-11.21;-10.71;-272.96;-1.25;0.17;127.22
0.07;-0.14;1.08;-2.49;8.54;-312.86;-1.43;0.32;119.08
-0.01;-0.04;1.13;-17.77;-18.12;-332.43;-1.91;-0.16;110.11
-0.09;-0.01;1.18;-17.18;-15.96;-294.06;-2.35;-0.50;101.87
-0.19;-0.03;1.23;-8.14;1.52;-339.76;-2.65;-0.26;88.28
-0.10;-0.07;1.09;-14.81;-5.37;-347.10;-3.04;-0.29;79.26
0.04;-0.02;1.20;-16.79;-7.22;-363.83;-3.45;-0.52;69.43
0.11;-0.02;1.09;-15.95;-5.93;-351.73;-3.84;-0.78;59.59
-0.03;-0.02;1.14;-13.69;-4.90;-371.58;-4.13;-0.87;49.92
-0.10;-0.06;1.18;-10.56;2.80;-362.48;-4.40;-0.68;39.78
-0.10;-0.09;1.18;-10.73;2.81;-340.51;-4.67;-0.50;30.92
0.07;-0.03;1.12;-8.98;6.05;-343.12;-4.85;-0.40;21.32
-0.01;0.03;1.17;-5.74;12.05;-331.94;-4.88;-0.06;12.35
-0.01;-0.00;1.14;-4.60;6.39;-291.88;-4.92;0.14;3.60
-0.04;-0.09;1.15;6.00;22.68;-271.58;-4.74;0.80;-4.01
-0.00;0.07;1.18;1.47;8.29;-294.43;-4.54;1.00;-11.96
-0.05;0.09;1.11;-4.64;2.05;-299.58;-4.48;1.08;-19.75
-0.04;0.13;1.07;-4.89;2.48;-220.17;-4.39;1.17;-25.91
0.04;-0.23;1.17;-2.44;2.19;-152.96;-4.58;1.17;-30.04
0.06;0.03;1.11;-0.03;0.28;-174.12;-4.46;1.10;-34.57
0.04;0.01;1.12;-0.46;0.84;-177.68;-4.37;1.06;-39.37
-0.08;0.14;1.10;0.31;1.13;-118.49;-4.15;1.14;-42.45
-0.00;0.08;1.12;-0.29;0.63;-3.59;-3.99;1.14;-42.56
0.04;-0.01;1.13;-0.21;4.49;1.97;-3.93;1.20;-42.50
-0.03;0.01;1.15;0.38;-0.03;7.94;-3.83;1.20;-42.30
0.07;0.01;1.18;-0.55;-5.26;34.97;-3.76;0.97;-41.35
-0.10;0.00;1.16;-3.02;-11.34;57.08;-3.76;0.75;-39.81
0.00;-0.02;1.17;-4.92;-11.48;48.99;-3.83;0.43;-38.49
-0.02;0.00;1.22;-5.82;-12.73;13.36;-3.91;0.11;-38.13
0.08;-0.03;1.13;-1.28;-1.00;7.66;-3.89;0.00;-37.92
-0.01;-0.00;1.14;2.00;5.75;3.97;-3.77;0.16;-37.81
-0.00;0.00;1.15;2.15;4.42;32.04;-3.63;0.27;-36.95
-0.06;0.02;1.15;0.99;-0.82;65.74;-3.52;0.30;-34.91
0.10;-0.02;1.17;3.77;7.79;66.64;-3.37;0.40;-33.18
0.06;-0.03;1.15;-1.85;-1.58;47.28;-3.38;0.29;-31.85
0.04;-0.02;1.15;0.31;0.39;17.89;-3.32;0.26;-31.37
0.01;-0.02;1.15;-0.23;-2.10;1.95;-3.28;0.18;-31.32
0.00;-0.01;1.15;-4.12;-6.16;-0.26;-3.33;0.01;-31.33
0.04;-0.02;1.15;-1.77;-3.19;-3.70;-3.33;-0.11;-31.42
-0.00;-0.01;1.15;1.15;1.47;-3.39;-3.24;-0.06;-31.51
0.01;-0.01;1.14;-0.18;-1.14;-0.63;-3.19;-0.10;-31.53
0.01;-0.00;1.14;-5.65;-9.49;-0.52;-3.27;-0.35;-31.54
0.02;-0.02;1.16;-6.26;-10.09;-0.22;-3.42;-0.66;-31.55
0.02;-0.01;1.15;-1.11;-1.89;0.12;-3.40;-0.71;-31.55
0.06;-0.03;1.15;1.07;0.91;-4.95;-3.33;-0.73;-31.68
-0.13;0.01;1.13;-4.37;-6.35;-22.34;-3.47;-0.90;-32.79
0.03;-0.02;1.14;-8.78;-16.67;0.09;-3.66;-1.37;-32.79
0.02;-0.14;1.14;-1.05;-0.67;-14.87;-3.75;-1.38;-33.21
-0.04;-0.08;1.21;2.08;4.16;-63.48;-3.70;-1.22;-34.86
0.01;-0.09;1.13;1.31;9.33;-107.82;-3.69;-0.96;-37.77
-0.07;-0.18;1.14;-5.33;1.24;-172.02;-3.93;-0.85;-42.41
-0.03;-0.12;1.17;-6.72;0.08;-252.34;-4.16;-0.80;-49.98
-0.02;-0.02;1.22;-9.02;-2.65;-327.19;-4.33;-0.84;-58.82
0.08;-0.00;1.13;-11.22;-0.51;-371.99;-4.54;-0.92;-68.86
0.14;-0.02;1.18;-12.12;-3.63;-402.75;-4.79;-1.12;-79.74
-0.03;-0.13;1.16;-14.85;-3.81;-413.48;-5.22;-1.18;-90.90
0.03;-0.06;1.25;-12.05;-2.80;-429.88;-5.49;-1.26;-102.94
0.10;-0.04;1.13;-12.43;2.52;-433.76;-5.75;-1.27;-114.65
0.06;-0.02;1.12;-13.76;-1.35;-396.43;-6.02;-1.34;-125.35
-0.06;-0.12;1.21;-15.98;-5.52;-403.68;-6.42;-1.41;-136.25
-0.13;-0.22;1.16;-17.34;-1.35;-477.33;-7.02;-1.31;-151.05
0.02;-0.20;1.13;-20.31;-5.43;-497.93;-7.63;-1.46;-164.99
-0.04;-0.15;1.17;-19.91;1.68;-497.93;-8.13;-1.35;-177.94
-0.16;0.02;1.27;-18.67;0.11;-497.93;-8.47;-1.18;-191.88
-0.13;-0.03;1.22;-16.14;4.05;-497.53;-8.75;-0.93;-205.31
-0.19;0.11;1.17;-14.12;5.38;-400.20;-8.84;-0.60;-215.72
-0.11;0.16;1.12;-8.20;5.94;-250.20;-8.73;-0.33;-222.47
-0.08;0.06;1.23;-5.57;-1.03;-177.21;-8.65;-0.28;-227.26
-0.06;0.04;1.18;-2.89;4.13;-142.26;-8.52;-0.11;-230.96
-0.06;-0.00;1.22;2.43;2.11;-80.08;-8.28;0.01;-233.36
-0.06;0.00;1.16;8.00;14.75;-47.44;-7.90;0.46;-234.64
-0.10;0.02;1.15;5.05;9.70;-7.48;-7.59;0.80;-234.83
0.01;-0.02;1.14;6.38;10.02;-0.23;-7.29;1.05;-234.84
-0.01;-0.01;1.16;5.25;8.68;0.06;-7.02;1.26;-234.84
0.01;-0.02;1.15;2.82;3.90;-0.19;-6.82;1.32;-234.84
0.02;-0.02;1.16;5.18;7.87;-0.35;-6.56;1.50;-234.85
0.00;-0.01;1.13;3.04;5.03;-0.57;-6.37;1.59;-234.87
-0.13;0.04;1.10;5.51;10.77;7.25;-6.05;1.98;-234.67
-0.12;-0.02;1.18;8.56;13.38;66.26;-5.71;2.42;-232.82
0.00;-0.02;1.16;3.19;8.17;94.20;-5.49;2.69;-229.05
0.01;-0.00;1.15;0.50;2.55;107.36;-5.37;2.69;-226.26
0.12;-0.08;1.09;-2.23;-4.73;122.38;-5.40;2.39;-222.83
-0.08;0.04;1.10;3.65;4.86;150.52;-5.16;2.55;-218.77
-0.05;0.04;1.12;2.26;-0.82;214.15;-4.96;2.53;-212.99
-0.04;0.08;1.16;-1.02;-3.90;245.84;-4.81;2.41;-206.35
-0.17;0.05;1.19;-9.04;-23.51;279.66;-4.90;1.92;-199.08
-0.11;0.08;1.14;-3.73;-13.26;338.65;-4.83;1.63;-189.93
-0.15;-0.00;1.12;4.98;-1.77;375.05;-4.60;1.71;-179.81
-0.28;0.05;1.15;9.30;3.97;484.62;-4.20;2.04;-165.75
0.19;-0.24;1.20;14.60;20.40;502.61;-3.93;2.39;-152.18
-0.11;0.02;1.10;8.85;13.73;502.61;-3.60;2.81;-138.61
-0.19;-0.22;1.17;3.37;-3.22;502.61;-3.62;2.83;-125.04
0.03;-0.27;1.05;-4.14;-19.31;502.61;-3.94;2.24;-111.47
0.73;-0.32;1.31;40.40;78.11;502.61;-2.93;3.86;-97.40
-0.35;0.29;1.17;13.39;8.80;502.61;-2.31;4.27;-84.33
0.26;-0.32;1.09;2.63;-5.11;502.61;-2.46;3.84;-70.26
-0.08;-0.15;1.20;-1.69;-19.23;326.75;-2.59;3.32;-61.44
0.17;-0.18;1.11;-10.35;-53.95;284.18;-2.96;1.73;-54.05
0.09;-0.02;1.07;8.05;2.66;260.59;-2.69;1.68;-46.23
0.02;-0.06;1.22;9.36;1.44;231.07;-2.44;1.67;-39.99
0.08;-0.05;1.13;5.05;-3.54;175.48;-2.32;1.46;-35.43
0.02;-0.05;1.16;3.24;-2.39;112.88;-2.23;1.35;-32.27
-0.03;-0.11;1.25;1.08;-6.25;101.55;-2.26;1.19;-29.63
0.02;-0.03;1.15;-1.85;-4.21;-8.75;-2.33;0.92;-30.10
0.12;-0.03;1.13;0.35;4.00;-40.64;-2.31;0.89;-31.16
0.02;-0.03;1.16;-0.43;5.79;-68.81;-2.30;1.01;-33.08
0.02;-0.03;1.17;-2.17;1.64;-94.45;-2.34;1.02;-35.63
-0.02;-0.02;1.16;-1.97;1.03;-78.75;-2.37;1.05;-38.00
0.07;-0.12;1.14;-1.28;3.07;-78.55;-2.47;1.05;-40.12
0.18;-0.09;1.13;-2.21;9.44;-164.60;-2.56;1.11;-44.56
-0.00;0.05;1.16;0.49;10.77;-191.82;-2.45;1.37;-49.55
-0.10;0.03;1.12;-0.76;10.20;-153.93;-2.39;1.71;-53.70
-0.17;0.05;1.13;4.38;10.80;-75.94;-2.19;2.13;-55.75
0.02;-0.02;1.16;-3.30;-4.93;0.03;-2.25;1.93;-55.75
0.02;-0.02;1.14;4.06;10.42;-0.26;-2.12;2.15;-55.76
-0.00;-0.02;1.15;2.26;4.88;1.31;-2.03;2.24;-55.72
-0.03;0.00;1.15;-0.35;-2.18;20.70;-2.00;2.17;-55.17
0.05;-0.03;1.14;-2.37;-5.17;2.10;-2.06;1.92;-55.10
0.02;-0.02;1.16;0.96;1.13;1.17;-2.01;1.90;-55.07
0.01;-0.01;1.14;7.13;13.15;-0.52;-1.79;2.20;-55.08
-0.06;0.03;1.04;10.53;18.98;-1.13;-1.44;2.72;-55.11
-0.01;-0.00;1.13;1.89;4.78;0.06;-1.37;2.80;-55.11
0.02;-0.02;1.12;-0.44;-0.30;-0.58;-1.37;2.71;-55.13
0.01;-0.01;1.14;0.85;0.10;-0.08;-1.33;2.66;-55.13
-0.01;-0.02;1.14;-1.71;-2.87;-0.12;-1.36;2.53;-55.13
-0.00;-0.01;1.15;-8.63;-20.21;0.84;-1.57;1.95;-55.11
0.01;-0.01;1.15;-11.68;-21.78;0.88;-1.84;1.35;-55.09
-0.03;-0.01;1.21;-25.28;-47.72;2.24;-2.59;-0.10;-55.02
0.02;-0.01;1.12;-3.57;-5.11;-0.22;-2.64;-0.26;-55.03
0.02;-0.01;1.15;-0.55;-1.48;-0.06;-2.62;-0.31;-55.03
0.02;-0.02;1.14;-1.31;-2.91;0.17;-2.61;-0.40;-55.02
0.03;-0.02;1.14;0.06;2.10;-0.26;-2.58;-0.36;-55.03
0.02;-0.03;1.15;2.21;6.95;-1.00;-2.50;-0.20;-55.06
-0.01;-0.01;1.16;8.29;20.19;-25.62;-2.24;0.35;-55.75
-0.01;-0.01;1.13;1.97;6.52;-7.15;-2.15;0.53;-55.95
0.01;-0.01;1.15;-0.64;2.42;-5.99;-2.14;0.57;-56.10
0.00;-0.01;1.14;-0.09;2.62;-0.58;-2.11;0.63;-56.12
0.02;-0.01;1.17;1.59;4.86;-0.34;-2.04;0.73;-56.13
0.02;-0.01;1.15;4.81;6.98;-0.29;-1.89;0.88;-56.14
0.01;-0.01;1.14;13.89;18.62;0.20;-1.48;1.36;-56.13
0.01;-0.02;1.15;3.31;5.46;5.81;-1.38;1.47;-55.98
-0.00;-0.00;1.13;2.95;3.73;0.65;-1.28;1.54;-55.96
-0.06;0.02;1.12;-1.40;1.32;4.93;-1.27;1.60;-55.83
-0.05;0.02;1.14;-7.89;-1.29;64.85;-1.43;1.58;-54.14
0.04;0.12;1.17;-14.03;-18.27;178.93;-1.66;1.03;-49.31
0.02;0.11;1.11;2.63;-7.57;341.57;-1.45;0.78;-39.75
-0.08;0.21;1.19;18.56;31.93;494.32;-0.70;1.74;-25.41
-0.05;0.14;1.17;10.47;-25.60;502.61;-0.28;1.07;-11.84
-0.67;0.34;1.27;23.83;13.62;502.61;0.56;1.86;1.73
-0.17;0.02;1.04;17.01;-19.66;502.61;1.01;1.48;15.30
-0.18;-0.30;1.22;19.86;-12.18;502.61;1.28;1.26;28.87
-0.02;-0.09;1.14;25.97;0.46;502.61;1.83;1.27;41.94
0.23;-0.28;1.24;11.47;-20.06;502.61;1.89;0.52;56.01
0.21;-0.22;1.15;23.10;22.26;421.36;2.28;0.93;67.38
0.08;-0.15;1.08;6.35;3.81;269.05;2.24;0.93;74.38
-0.01;-0.12;1.16;16.03;20.40;211.13;2.51;1.46;80.08
-0.31;0.08;1.17;6.76;9.23;165.77;2.78;2.07;86.71
-0.13;-0.06;1.17;3.50;1.17;80.75;2.77;2.19;88.89
0.03;-0.02;1.12;-9.37;-9.72;-0.72;2.45;1.85;88.87
0.04;-0.03;1.14;-4.34;-16.73;-19.41;2.26;1.33;88.35
-0.01;-0.02;1.18;-12.58;-22.35;-20.11;1.55;0.18;87.30
0.04;-0.04;1.11;-1.01;0.22;-38.38;1.45;0.15;86.23
0.08;-0.06;1.12;-2.96;-0.39;-63.48;1.30;0.06;84.58
0.07;-0.08;1.14;-2.23;1.49;-112.05;1.14;0.03;81.55
0.13;-0.18;1.10;-4.53;3.49;-186.75;0.83;0.01;76.51
0.13;-0.21;1.15;-3.28;12.86;-286.11;0.54;0.22;69.07
-0.00;-0.11;1.10;-9.48;-1.31;-385.99;0.13;0.19;57.10
-0.08;-0.17;1.20;-16.43;-7.14;-451.88;-0.46;0.06;44.90
-0.21;-0.12;1.14;-20.84;-9.38;-497.93;-1.10;0.00;31.46
-0.17;-0.07;1.16;-21.48;-6.25;-497.93;-1.71;-0.01;18.02
0.02;0.01;1.13;-15.95;2.57;-497.93;-2.09;0.04;4.57
0.02;0.02;1.15;-12.70;11.01;-497.93;-2.36;0.31;-8.87
-0.22;-0.11;1.03;-32.32;-18.73;-497.93;-3.27;0.03;-22.32
-0.10;0.01;1.09;-20.70;-2.62;-497.93;-3.74;0.06;-35.76
0.02;-0.01;1.11;-13.33;1.79;-431.73;-4.03;0.09;-47.42
0.10;0.07;1.10;-12.72;0.26;-345.29;-4.27;-0.00;-58.12
0.07;0.10;1.17;-13.40;-8.03;-263.87;-4.45;-0.28;-65.24
-0.06;0.07;1.15;-9.69;-4.97;-179.03;-4.55;-0.35;-70.08
-0.06;0.18;1.20;0.27;5.79;-77.79;-4.29;-0.13;-72.26
-0.01;0.04;1.15;1.91;7.13;-26.80;-4.12;0.07;-72.95
-0.03;0.01;1.12;0.84;1.39;-2.96;-4.00;0.14;-73.03
0.04;-0.03;1.15;-2.47;0.20;-29.99;-4.02;0.10;-73.84
0.16;-0.07;1.14;-2.35;1.42;-70.72;-4.06;-0.01;-75.68
0.11;-0.08;1.14;-6.06;-3.87;-169.13;-4.22;-0.22;-80.25
-0.07;0.03;1.14;-5.79;-0.27;-167.33;-4.26;-0.15;-84.60
-0.15;0.10;1.11;-3.66;-4.90;-45.68;-4.19;-0.16;-86.02
0.02;-0.02;1.16;3.30;8.52;0.09;-4.04;0.05;-86.01
-0.06;0.01;1.19;-2.99;-14.77;47.10;-4.02;-0.28;-84.79
0.02;-0.00;1.15;2.27;0.25;73.22;-3.89;-0.29;-82.81
0.01;0.04;1.14;1.65;-3.75;77.34;-3.72;-0.39;-80.72
0.04;0.01;1.14;0.56;-4.94;70.29;-3.63;-0.55;-78.90
0.02;-0.05;1.13;3.44;2.39;43.17;-3.52;-0.49;-77.73
0.08;-0.06;1.13;1.45;0.00;30.56;-3.47;-0.55;-76.90
0.03;-0.02;1.12;0.98;-0.74;22.52;-3.39;-0.59;-76.32
-0.01;-0.02;1.15;1.69;2.45;30.99;-3.29;-0.49;-75.36
0.04;-0.03;1.13;1.73;0.08;35.46;-3.21;-0.52;-74.40
0.05;-0.03;1.16;0.60;-1.32;21.45;-3.16;-0.60;-73.84
-0.00;-0.01;1.17;-0.08;0.42;0.06;-3.11;-0.57;-73.84
0.03;-0.02;1.14;0.17;0.13;0.10;-3.06;-0.58;-73.84
0.02;-0.02;1.14;0.05;0.16;0.24;-3.02;-0.59;-73.83
0.02;-0.02;1.14;-0.24;0.22;0.23;-2.98;-0.59;-73.83
0.03;-0.02;1.15;-0.03;-0.27;-0.09;-2.94;-0.61;-73.83
0.02;-0.03;1.15;0.37;0.39;-0.09;-2.90;-0.61;-73.83
0.07;-0.03;1.13;-0.99;0.37;-23.62;-2.89;-0.66;-74.47
-0.04;-0.01;1.15;-0.98;-3.37;-0.60;-2.87;-0.70;-74.49
0.03;-0.02;1.15;-1.48;-4.44;-0.34;-2.87;-0.84;-74.50
0.04;-0.02;1.15;0.05;2.54;-15.93;-2.84;-0.80;-74.94
0.02;-0.02;1.15;0.23;2.39;-21.74;-2.80;-0.74;-75.51
0.04;-0.03;1.15;-0.55;1.70;-33.06;-2.78;-0.72;-76.43
0.01;-0.07;1.15;-1.39;-0.15;-49.38;-2.83;-0.72;-77.77
0.02;-0.06;1.16;-4.03;-2.88;-79.10;-2.94;-0.80;-79.90
0.05;-0.11;1.13;-5.21;0.89;-141.15;-3.12;-0.80;-83.71
0.06;-0.18;1.19;-6.47;5.50;-240.08;-3.40;-0.69;-90.20
0.01;-0.18;1.13;-12.38;0.74;-342.41;-3.84;-0.66;-99.44
0.00;-0.24;1.13;-17.08;1.38;-454.48;-4.52;-0.61;-113.53
0.01;-0.21;1.17;-20.60;-3.87;-497.93;-5.16;-0.70;-126.48
0.05;-0.20;1.13;-22.05;2.54;-497.93;-5.86;-0.65;-140.42
-0.01;-0.12;1.15;-25.10;3.17;-497.93;-7.07;-0.48;-164.82
0.13;0.02;1.13;-20.61;6.13;-497.93;-7.49;-0.43;-179.26
-0.08;-0.03;1.13;-21.59;2.07;-497.93;-7.94;-0.29;-192.70
-0.02;0.06;1.08;-17.50;7.38;-497.93;-8.17;-0.07;-205.65
0.19;-0.01;0.73;-20.44;6.17;-497.93;-8.58;-0.19;-219.59
-0.11;-0.05;1.15;-18.41;6.25;-497.93;-8.92;0.09;-232.53
-0.17;-0.02;1.12;-13.01;7.30;-434.23;-9.16;0.47;-245.99
-0.18;-0.04;1.19;-11.63;0.34;-291.64;-9.33;0.64;-254.16
-0.14;0.10;1.17;-9.83;-5.60;-177.65;-9.31;0.61;-258.78
-0.08;0.04;1.07;-4.05;-0.97;-98.83;-9.20;0.66;-261.55
-0.08;0.02;1.14;1.21;1.70;-44.03;-8.96;0.77;-262.74
-0.05;-0.01;1.11;-1.83;0.55;-18.37;-8.83;0.81;-263.21
0.03;-0.00;1.17;1.97;1.32;-4.78;-8.60;0.80;-263.35
-0.01;0.01;1.13;3.54;3.53;33.45;-8.33;0.89;-262.44
-0.02;0.00;1.14;3.48;4.63;55.36;-8.07;1.01;-261.00
0.04;-0.03;1.15;1.95;0.95;45.45;-7.87;0.99;-259.19
-0.04;-0.03;1.17;3.94;2.46;68.61;-7.63;1.08;-257.33
-0.07;0.02;1.12;3.50;1.49;126.61;-7.37;1.17;-254.04
-0.06;0.01;1.14;5.80;2.60;193.43;-7.06;1.28;-248.82
-0.05;-0.01;1.11;6.15;1.24;250.46;-6.77;1.34;-242.06
0.01;-0.02;1.14;3.19;-11.72;279.08;-6.57;0.99;-234.52
-0.01;0.01;1.12;7.65;1.70;292.18;-6.23;1.02;-226.63
-0.16;0.10;1.18;11.68;3.90;335.95;-5.70;1.25;-217.23
-0.11;-0.03;1.10;9.34;-0.80;378.62;-5.37;1.31;-207.38
0.03;-0.22;1.15;13.98;8.42;330.49;-5.05;1.52;-197.14
-0.04;-0.03;1.14;-1.24;-12.77;271.94;-5.01;1.19;-189.80
-0.14;0.05;1.17;10.78;-1.25;382.17;-4.59;1.26;-179.86
-0.21;-0.00;1.22;18.70;-1.08;461.29;-4.01;1.40;-167.40
0.26;-0.19;1.24;18.85;11.44;464.82;-3.57;1.47;-154.85
-0.23;-0.02;1.14;24.24;22.20;430.04;-2.90;2.23;-143.67
0.26;-0.24;1.04;3.89;-6.25;449.74;-2.94;1.78;-131.53
0.14;-0.20;1.25;4.32;-9.75;315.63;-2.94;1.39;-123.32
-0.18;0.03;1.16;12.47;10.57;340.82;-2.52;1.81;-114.12
0.04;-0.18;1.16;0.40;-15.60;339.84;-2.63;1.32;-104.95
0.17;-0.00;1.04;10.14;-3.95;346.23;-2.29;0.99;-94.56
0.06;0.08;1.16;13.98;4.66;360.84;-1.78;1.05;-84.46
0.06;-0.12;1.15;11.24;4.23;336.61;-1.56;1.09;-75.37
0.02;-0.10;1.16;8.18;-0.24;280.99;-1.42;1.04;-68.06
-0.00;-0.08;1.18;3.73;-7.54;244.71;-1.37;0.83;-61.45
0.14;-0.07;1.13;2.23;-4.09;179.77;-1.34;0.57;-56.60
0.09;-0.09;1.13;-0.34;-1.32;79.05;-1.41;0.44;-54.47
-0.00;-0.04;1.18;0.56;-0.74;13.40;-1.40;0.42;-54.10
0.11;-0.04;1.14;2.56;5.70;-26.11;-1.34;0.45;-54.78
-0.02;-0.02;1.16;-0.17;1.65;-43.74;-1.34;0.51;-56.14
-0.07;-0.03;1.17;1.95;3.76;-29.64;-1.28;0.67;-56.97
-0.04;-0.04;1.18;-1.16;-0.50;-33.50;-1.32;0.69;-57.84
-0.02;-0.01;1.15;1.27;0.86;-24.03;-1.27;0.71;-58.49
0.02;-0.01;1.14;-0.70;0.23;-16.92;-1.27;0.69;-58.95
0.02;-0.02;1.13;-1.89;-2.79;-22.98;-1.31;0.58;-59.54
0.04;-0.01;1.13;-1.05;-1.72;-12.00;-1.32;0.49;-59.88
0.05;-0.02;1.16;-2.55;-3.78;7.49;-1.38;0.33;-59.68
0.02;0.00;1.15;-2.27;-5.66;3.89;-1.41;0.16;-59.58
0.05;-0.04;1.12;-1.21;-0.50;-22.14;-1.45;0.10;-60.17
-0.05;-0.02;1.17;-1.42;-1.64;-42.63;-1.49;0.10;-61.49
-0.07;-0.01;1.15;-2.35;-2.32;-32.77;-1.53;0.11;-62.35
0.00;-0.01;1.13;-0.73;-0.65;-21.70;-1.52;0.08;-62.95
-0.02;-0.01;1.15;-0.72;-0.77;-20.57;-1.52;0.08;-63.51
0.02;-0.02;1.15;-0.90;-2.33;-17.67;-1.54;-0.01;-63.99
0.06;-0.03;1.15;0.05;0.58;-23.15;-1.53;-0.03;-65.19
0.01;-0.01;1.15;-2.15;-1.77;-37.48;-1.57;-0.09;-66.20
-0.02;0.01;1.08;-21.89;-35.19;1.23;-2.11;-0.99;-66.17
0.03;-0.03;1.15;-1.39;-4.16;-1.80;-2.12;-1.11;-66.22
0.03;-0.02;1.16;2.05;8.77;-43.93;-2.04;-0.85;-67.58
-0.07;0.01;1.13;-3.77;-5.28;-12.37;-2.09;-0.91;-67.92
0.02;-0.02;1.15;-1.88;-4.30;0.38;-2.12;-1.02;-67.91
0.03;-0.02;1.14;0.15;-0.44;0.17;-2.09;-1.04;-67.91
0.02;-0.01;1.14;-1.33;-2.45;1.22;-2.10;-1.10;-67.88
0.04;-0.03;1.15;-0.63;-2.15;9.29;-2.10;-1.17;-67.63
0.04;-0.03;1.14;0.20;-0.65;0.46;-2.08;-1.21;-67.62
0.03;-0.02;1.15;-0.52;-0.61;-0.26;-2.07;-1.22;-67.63
0.02;-0.02;1.15;2.75;8.78;-35.91;-1.98;-0.99;-68.60
0.11;-0.06;1.14;-1.62;-2.51;-31.29;-2.03;-1.14;-69.48
-0.00;-0.01;1.14;-1.56;-1.55;-37.41;-2.05;-1.17;-70.60
0.02;-0.03;1.16;-1.25;-0.59;-31.51;-2.07;-1.17;-71.45
0.00;-0.01;1.14;-1.34;-1.63;-19.30;-2.07;-1.20;-71.97
0.03;-0.04;1.14;-1.57;-4.32;-2.38;-2.11;-1.31;-72.03
0.03;-0.02;1.14;-0.64;0.86;-8.87;-2.10;-1.29;-72.27
0.03;-0.02;1.15;0.03;1.29;-16.54;-2.08;-1.26;-72.73
0.06;-0.08;1.13;-2.06;-0.15;-40.61;-2.17;-1.30;-73.79
0.03;-0.24;1.11;-3.07;7.52;-140.19;-2.45;-1.09;-77.72
-0.00;-0.19;1.18;-8.73;-2.45;-253.30;-2.80;-1.13;-84.30
0.06;-0.20;1.17;-13.88;-2.15;-363.27;-3.35;-1.22;-95.56
0.04;-0.21;1.17;-19.98;-8.07;-473.15;-4.03;-1.45;-108.81
0.01;-0.16;1.11;-23.22;0.51;-497.93;-4.70;-1.42;-121.76
-0.00;-0.08;1.18;-24.99;0.95;-497.93;-5.37;-1.36;-135.70
0.05;-0.04;1.14;-23.94;6.08;-497.93;-5.94;-1.22;-149.14
0.12;0.07;1.19;-21.77;5.00;-497.93;-6.33;-1.17;-162.59
-0.05;-0.07;1.16;-20.47;1.07;-497.93;-6.81;-1.07;-176.03
-0.10;-0.15;1.16;-17.27;4.26;-497.93;-7.29;-0.84;-189.97
0.00;-0.03;1.04;-16.06;4.37;-474.60;-7.58;-0.72;-202.31
-0.17;0.13;1.23;-13.37;4.89;-407.58;-7.85;-0.36;-218.62
-0.01;-0.03;1.08;-11.27;2.28;-339.41;-8.02;-0.28;-227.78
-0.01;-0.04;1.02;-10.93;1.87;-262.80;-8.19;-0.22;-234.87
-0.14;0.02;1.17;-7.05;-0.68;-184.09;-8.20;-0.09;-239.85
-0.09;0.02;1.15;-4.02;-2.13;-114.41;-8.12;-0.06;-242.93
-0.05;0.01;1.15;-1.79;-1.08;-50.67;-8.00;-0.04;-244.30
-0.01;0.02;1.14;0.12;-0.13;0.52;-7.82;-0.03;-244.29
0.05;-0.02;1.13;1.01;3.15;17.43;-7.66;0.01;-243.80
-0.10;0.00;1.14;2.85;2.92;45.59;-7.43;0.18;-242.62
-0.09;-0.01;1.17;3.44;0.39;83.02;-7.18;0.28;-240.04
-0.04;0.02;1.14;4.21;-0.99;114.99;-6.90;0.28;-236.94
-0.02;0.03;1.12;5.34;2.84;153.39;-6.59;0.37;-232.80
-0.00;0.01;1.16;7.42;0.94;198.55;-6.25;0.39;-227.43
-0.01;-0.01;1.10;7.95;3.84;225.43;-5.93;0.50;-221.35
-0.09;-0.05;1.16;7.91;-2.56;247.33;-5.65;0.51;-214.92
-0.05;-0.02;1.15;9.82;-1.11;299.84;-5.30;0.53;-206.82
0.04;0.03;1.05;15.15;10.89;404.85;-4.76;0.77;-195.89
-0.06;-0.08;1.20;14.89;-2.45;455.54;-4.36;0.74;-184.05
-0.08;-0.09;1.20;13.48;-3.63;474.70;-3.98;0.70;-170.76
0.00;-0.17;1.20;14.87;-0.79;456.20;-3.61;0.66;-156.61
-0.08;-0.11;1.11;14.52;-3.93;472.04;-3.28;0.62;-144.34
-0.21;-0.11;1.22;16.75;1.76;502.61;-2.84;0.84;-130.27
0.26;-0.22;1.05;18.55;15.01;477.13;-2.50;0.97;-117.86
0.10;-0.14;1.18;13.89;-4.62;465.16;-2.19;0.74;-104.84
0.18;-0.09;1.11;12.78;-0.99;399.84;-1.89;0.53;-94.04
0.16;0.02;1.09;9.11;-1.28;292.82;-1.36;0.30;-78.52
0.07;0.00;1.15;11.11;0.69;340.35;-1.03;0.24;-69.33
0.14;-0.11;1.10;8.87;-3.17;290.53;-0.88;0.02;-61.49
0.25;-0.08;1.14;5.50;-7.61;196.07;-0.77;-0.44;-55.61
0.18;-0.02;1.19;4.35;-5.19;133.28;-0.66;-0.74;-52.01
0.09;-0.04;1.14;1.98;-5.55;101.26;-0.63;-0.95;-49.37
0.02;-0.08;1.18;1.08;-1.37;54.24;-0.66;-0.99;-47.86
-0.09;-0.06;1.16;-1.95;-5.98;-7.80;-0.75;-1.03;-48.06
-0.00;-0.06;1.15;-1.62;-1.60;-48.49;-0.84;-1.05;-49.37
0.06;-0.05;1.15;-1.85;0.60;-62.64;-0.93;-1.07;-51.06
0.04;-0.02;1.18;-1.73;-1.54;-79.47;-0.97;-1.12;-53.13
-0.08;0.01;1.10;-2.96;0.16;-56.16;-1.02;-1.02;-54.70
0.03;-0.03;1.15;0.47;2.23;-23.22;-1.01;-0.96;-55.32
-0.01;-0.02;1.16;-1.57;-3.81;-12.40;-1.06;-1.05;-55.70
-0.00;0.00;1.13;-1.47;-4.30;0.71;-1.07;-1.14;-55.68
0.04;-0.03;1.14;-0.34;-0.96;-1.47;-1.09;-1.18;-55.72
0.04;-0.03;1.13;-0.03;-0.07;-2.87;-1.10;-1.20;-55.79
0.04;-0.03;1.13;0.52;3.41;-8.45;-1.09;-1.12;-56.02
0.03;-0.03;1.14;-0.00;0.77;-8.74;-1.10;-1.10;-56.25
0.01;-0.00;1.15;0.06;0.66;-4.57;-1.08;-1.07;-56.37
0.02;-0.02;1.14;0.38;1.00;0.13;-1.07;-1.05;-56.37
0.03;-0.02;1.15;0.78;2.69;-0.02;-1.05;-0.98;-56.37
0.02;-0.01;1.14;1.85;4.58;12.93;-0.98;-0.84;-55.97
0.04;-0.03;1.14;0.85;2.69;16.20;-0.97;-0.79;-55.52
0.02;-0.02;1.16;0.64;1.47;17.59;-0.95;-0.76;-55.06
0.04;-0.02;1.15;0.79;1.79;12.32;-0.94;-0.73;-54.73
0.03;-0.02;1.15;0.61;2.43;0.15;-0.92;-0.68;-54.72
0.02;-0.01;1.15;-0.17;-0.04;-0.40;-0.92;-0.68;-54.73
0.03;-0.03;1.14;-1.11;-2.06;-16.43;-0.96;-0.75;-55.18
0.06;-0.05;1.15;-1.45;0.45;-54.34;-1.02;-0.78;-56.64
0.11;-0.07;1.15;-3.36;-0.61;-103.82;-1.15;-0.89;-59.34
-0.00;-0.08;1.15;-6.41;0.22;-170.78;-1.38;-0.86;-64.13
0.04;-0.15;1.08;-10.03;-1.28;-247.45;-1.81;-0.92;-71.80
0.07;-0.09;1.16;-12.58;-3.14;-324.67;-2.18;-1.05;-80.24
0.14;-0.10;1.10;-15.05;2.02;-413.47;-2.65;-1.10;-91.81
0.17;-0.11;1.13;-17.82;3.39;-497.93;-3.15;-1.15;-104.76
0.03;-0.09;1.19;-20.61;1.58;-497.93;-3.72;-1.11;-118.20
0.14;-0.06;1.13;-20.66;7.23;-497.93;-4.27;-1.02;-132.15
-0.03;-0.08;1.23;-19.56;0.77;-497.93;-4.75;-0.96;-145.09
-0.08;-0.20;1.11;-18.73;2.51;-497.93;-5.35;-0.79;-159.03
-0.09;-0.16;1.13;-18.37;2.17;-497.93;-5.88;-0.64;-172.48
-0.08;-0.14;1.17;-15.82;3.88;-497.93;-6.36;-0.45;-187.42
-0.08;0.05;1.22;-9.51;20.28;-497.93;-6.44;0.18;-200.86
-0.07;-0.07;1.07;2.15;35.07;-450.89;-6.32;1.20;-213.49
-0.19;0.02;1.18;5.91;26.33;-383.79;-6.03;2.03;-223.46
-0.18;0.11;1.12;1.77;10.42;-271.42;-5.77;2.44;-231.06
-0.07;0.15;1.18;0.56;-1.87;-148.74;-5.50;2.40;-235.08
-0.08;0.10;1.17;-3.63;-3.66;-75.19;-5.39;2.33;-237.11
-0.14;0.04;1.19;-3.45;1.65;-33.76;-5.34;2.46;-238.02
-0.05;0.01;1.17;-0.40;-0.59;-8.31;-5.23;2.44;-238.24
0.00;-0.03;1.16;-1.37;-6.07;-0.08;-5.21;2.15;-238.24
0.04;-0.02;1.16;2.90;5.58;1.66;-5.05;2.21;-238.20
-0.03;0.01;1.16;6.73;11.44;15.49;-4.76;2.51;-237.76
-0.05;-0.01;1.14;0.81;0.71;44.62;-4.65;2.53;-236.60
0.05;-0.03;1.13;-1.01;-1.52;54.68;-4.61;2.40;-235.07
-0.02;-0.01;1.14;0.53;-0.54;57.16;-4.51;2.35;-233.53
0.01;0.05;1.15;-1.16;-3.81;79.11;-4.40;2.20;-231.47
-0.26;0.04;1.26;-20.56;-41.61;140.70;-5.33;0.26;-224.15
-0.07;-0.06;1.10;4.95;1.21;250.33;-5.15;0.36;-217.14
0.04;0.03;1.13;13.73;22.72;301.77;-4.65;0.91;-209.00
0.06;-0.08;1.16;-9.01;-28.35;256.32;-4.90;-0.00;-201.31
0.28;0.06;1.00;3.36;-18.15;304.38;-4.65;-0.80;-192.78
-0.13;0.04;1.18;14.26;7.00;335.72;-4.15;-0.47;-183.72
-0.05;0.01;1.16;12.67;-2.96;378.18;-3.72;-0.49;-173.51
-0.27;0.03;1.19;22.55;24.89;452.00;-3.03;0.44;-161.31
-0.66;-0.03;1.32;17.37;2.69;502.61;-2.51;1.02;-147.23
0.64;-0.16;1.10;10.11;-21.72;498.88;-2.31;-0.09;-134.26
-0.09;0.02;1.09;17.15;10.13;428.01;-1.77;0.29;-122.28
-0.08;-0.06;1.17;17.22;7.85;476.33;-1.34;0.56;-109.42
-0.10;-0.06;1.16;14.78;7.21;471.45;-0.93;0.86;-95.27
-0.01;-0.07;1.19;21.31;15.85;482.15;-0.39;1.28;-81.77
-0.01;-0.06;1.13;16.76;17.04;467.23;-0.00;1.72;-69.16
-0.00;-0.08;1.14;13.91;8.74;447.71;0.29;1.92;-57.07
0.01;-0.05;1.09;3.21;-4.51;408.44;0.32;1.76;-46.04
-0.01;-0.02;1.19;-0.46;-16.65;354.64;0.28;1.31;-36.82
0.11;-0.00;1.05;19.59;22.74;277.88;0.79;1.76;-29.32
0.20;-0.08;1.12;4.67;4.05;139.57;0.83;1.65;-25.55
-0.01;-0.01;1.11;1.48;-2.25;58.76;0.84;1.57;-23.96
-0.02;-0.08;1.19;2.06;-0.15;25.55;0.80;1.55;-23.27
0.01;-0.08;1.14;-0.21;1.55;-4.00;0.70;1.56;-23.40
0.04;-0.03;1.13;-0.82;0.81;-14.54;0.64;1.51;-23.78
-0.01;-0.06;1.16;0.44;1.33;-30.05;0.59;1.53;-24.62
-0.02;-0.04;1.13;-0.47;-2.65;-29.70;0.52;1.44;-25.42
0.01;-0.02;1.14;-1.33;-0.82;-43.10;0.46;1.38;-26.54
0.03;-0.03;1.18;-1.15;-0.71;-42.80;0.39;1.31;-27.69
-0.00;-0.01;1.15;-0.73;-0.12;-42.11;0.35;1.28;-28.79
0.05;-0.02;1.16;-0.56;-0.67;-58.84;0.31;1.20;-30.44
-0.05;-0.00;1.16;-1.54;-2.47;-64.92;0.25;1.16;-32.19
-0.03;-0.01;1.12;-2.08;-1.84;-45.91;0.18;1.11;-33.57
0.02;-0.02;1.14;-1.18;-1.81;-27.97;0.12;1.02;-34.35
-0.00;0.01;1.13;-1.13;0.95;-26.55;0.10;1.03;-35.07
0.03;-0.02;1.14;-1.77;-2.01;-33.71;0.04;0.92;-35.94
-0.07;0.00;1.12;-0.72;-1.06;-22.95;0.02;0.95;-36.59
-0.01;-0.02;1.16;0.40;-1.74;-13.77;0.01;0.89;-36.96
0.02;-0.02;1.14;-0.49;-0.74;-12.98;-0.02;0.83;-37.30
0.01;-0.01;1.14;-0.78;-0.01;-17.91;-0.05;0.81;-37.78
-0.02;-0.01;1.14;-0.72;-0.88;-12.22;-0.08;0.79;-38.11
-0.01;-0.01;1.16;-0.12;-0.58;-9.85;-0.09;0.77;-38.38
0.00;-0.01;1.14;0.20;0.05;-4.22;-0.10;0.75;-38.51
-0.00;-0.01;1.15;0.12;0.37;-2.60;-0.11;0.75;-38.58
0.02;-0.01;1.15;-0.31;0.65;-3.18;-0.13;0.74;-38.66
0.00;-0.01;1.15;0.06;0.36;-6.86;-0.14;0.73;-38.85
0.05;-0.02;1.14;-0.20;-0.59;-12.69;-0.16;0.65;-39.19
0.03;-0.03;1.14;-0.21;-1.54;-14.83;-0.19;0.56;-39.59
-0.02;-0.02;1.16;-0.37;-2.65;-11.33;-0.21;0.49;-39.91
0.01;-0.02;1.15;-0.98;-0.87;-10.80;-0.25;0.45;-40.19
-0.00;-0.00;1.14;-0.89;-2.01;-4.34;-0.27;0.39;-40.31
-0.00;-0.01;1.15;-0.82;-0.91;-2.67;-0.30;0.36;-40.38
0.01;-0.01;1.14;-0.18;-1.17;-2.34;-0.31;0.30;-40.45
0.01;-0.02;1.14;-0.20;-0.61;-3.51;-0.33;0.27;-40.55
0.03;-0.02;1.15;-0.34;-1.03;-9.99;-0.34;0.21;-40.82
0.01;-0.01;1.13;-0.52;0.20;-14.92;-0.36;0.20;-41.22
0.01;-0.01;1.14;-1.36;-0.27;-26.06;-0.40;0.18;-41.93
-0.00;-0.01;1.15;-0.67;-0.85;-19.82;-0.42;0.16;-42.44
0.02;-0.01;1.13;-2.60;-4.74;-4.72;-0.55;-0.10;-42.68
0.01;-0.02;1.16;-3.62;-6.29;-10.40;-0.66;-0.28;-42.97
0.01;-0.02;1.17;-4.50;-9.86;-9.61;-0.78;-0.55;-43.24
0.02;-0.01;1.14;-1.89;-6.27;-19.50;-0.83;-0.74;-43.83
-0.03;0.02;1.45;-7.63;-4.32;-16.16;-0.99;-0.82;-44.25
-0.00;0.01;1.14;-5.18;-8.79;-12.16;-1.10;-1.03;-44.58
0.07;-0.01;1.12;-1.01;-0.67;1.04;-1.12;-1.10;-44.55
0.01;-0.02;1.16;0.58;2.33;0.15;-1.10;-1.02;-44.54
-0.02;-0.01;1.18;-1.51;-8.07;0.75;-1.12;-1.21;-44.52
0.03;-0.02;1.14;0.15;-0.74;1.22;-1.12;-1.23;-44.49
0.02;-0.02;1.15;-1.01;-3.42;1.13;-1.14;-1.31;-44.46
0.02;-0.02;1.15;-1.10;-5.14;1.13;-1.17;-1.44;-44.43
0.02;-0.02;1.14;-2.49;-7.45;0.36;-1.23;-1.63;-44.42
0.02;-0.02;1.14;0.05;-1.45;-0.02;-1.22;-1.68;-44.42
0.02;-0.02;1.15;-0.58;-1.35;0.10;-1.23;-1.70;-44.42
0.03;-0.02;1.15;-0.64;-0.77;0.18;-1.25;-1.72;-44.41
0.03;-0.02;1.15;0.12;-0.44;0.21;-1.24;-1.72;-44.41
0.03;-0.03;1.15;0.38;-0.03;0.24;-1.23;-1.71;-44.40
0.00;0.00;1.15;0.31;1.81;2.58;-1.19;-1.63;-44.33
0.01;0.02;1.16;1.21;0.11;28.91;-1.12;-1.60;-43.58
-0.00;0.05;1.15;1.79;-2.82;67.16;-0.99;-1.64;-41.76
-0.01;0.04;1.17;7.08;-1.17;162.18;-0.75;-1.63;-37.39
-0.00;0.08;1.13;8.99;-1.00;229.63;-0.38;-1.63;-30.27
-0.08;0.24;1.12;13.11;-0.29;328.24;0.19;-1.53;-21.40
-0.07;0.16;1.18;16.63;-4.65;429.28;0.77;-1.56;-9.81
0.13;0.04;1.10;17.36;-4.25;446.85;1.26;-1.78;2.25
0.04;-0.10;1.16;19.13;-3.03;499.39;1.64;-1.86;15.73
0.04;-0.03;1.09;24.52;1.99;502.61;2.20;-1.81;28.80
-0.25;0.16;1.09;26.06;9.88;502.61;2.98;-1.29;42.37
-0.13;0.02;1.16;26.63;22.48;502.61;3.67;-0.52;56.45
0.40;-0.41;1.09;11.79;-23.72;502.61;3.58;-1.41;69.51
-0.07;0.06;1.22;22.73;14.91;467.59;4.19;-0.91;82.61
-0.11;0.13;1.12;24.26;27.75;448.39;4.93;0.02;96.06
-0.08;0.04;1.02;10.98;12.22;458.52;5.16;0.42;107.98
-0.05;-0.02;1.12;12.18;3.85;500.79;5.35;0.57;121.50
0.23;-0.13;1.28;0.09;-23.28;412.39;5.15;-0.27;133.05
0.09;-0.28;1.16;8.67;0.45;231.94;5.01;-0.32;139.08
-0.16;-0.14;1.18;3.16;2.94;148.10;4.88;-0.10;143.22
-0.16;-0.05;1.21;-0.92;-6.48;86.07;4.72;-0.12;145.46
-0.00;-0.06;1.10;6.93;9.55;48.64;4.74;0.14;146.78
-0.14;-0.01;1.19;-9.69;-21.87;23.14;4.38;-0.31;147.40
-0.01;-0.01;1.16;-3.01;-8.45;-5.67;4.21;-0.51;147.25
0.14;-0.10;1.14;-0.05;-7.77;-23.56;4.03;-0.86;146.52
0.04;-0.10;1.16;2.00;3.90;-77.50;3.91;-0.78;144.35
-0.01;-0.12;1.16;-3.21;2.39;-151.48;3.63;-0.69;140.41
-0.07;-0.14;1.14;-4.70;4.92;-229.76;3.30;-0.48;133.98
-0.18;-0.16;1.21;6.53;24.48;-256.31;3.27;0.33;127.06
0.35;-0.52;1.06;10.31;19.97;-293.33;3.08;0.60;119.14
-0.24;-0.12;1.24;6.55;14.57;-325.85;3.10;1.17;110.34
-0.29;-0.08;0.83;-7.51;17.07;-304.71;2.76;1.95;102.12
-0.08;-0.13;1.08;-23.60;-28.33;-349.76;1.95;1.24;92.67
0.27;-0.21;1.17;-18.31;-4.97;-497.93;1.19;0.84;77.24
0.05;-0.16;1.13;-6.37;20.62;-497.93;0.84;1.33;63.79
-0.27;0.09;1.14;-17.22;1.59;-497.93;0.44;1.59;50.35
-0.29;0.16;1.22;-39.39;-36.67;-497.93;-0.49;0.82;36.90
-0.12;0.00;1.11;-14.63;9.55;-497.93;-0.85;1.17;23.96
-0.51;0.15;1.08;-18.70;-5.05;-497.93;-1.22;1.46;10.51
-0.11;0.31;1.07;-3.33;-1.26;-85.42;-1.06;1.46;6.33
0.36;0.06;1.07;-12.43;-1.02;-206.84;-1.35;1.05;0.33
0.09;-0.09;1.19;-12.24;-14.87;-232.09;-1.71;0.56;-5.70
0.44;0.05;1.10;-4.29;10.49;-203.80;-1.76;0.43;-11.41
0.20;-0.00;1.14;-11.01;-2.91;-245.04;-2.05;0.13;-18.76
0.11;-0.03;1.13;-8.17;-5.40;-164.98;-2.24;-0.11;-23.05
0.10;0.02;1.14;-5.15;-0.82;-121.27;-2.31;-0.23;-26.45
0.02;0.03;1.13;-4.55;-1.02;-95.30;-2.36;-0.27;-29.02
-0.07;0.03;1.17;-2.23;2.20;-57.85;-2.34;-0.14;-30.52
-0.05;0.02;1.14;-1.30;0.60;-24.57;-2.31;-0.07;-31.19
-0.00;-0.01;1.15;-0.18;0.36;-6.54;-2.28;-0.05;-31.36
0.03;-0.03;1.14;-0.35;-1.05;-3.41;-2.27;-0.11;-31.46
0.03;-0.01;1.14;-0.09;-1.31;-0.77;-2.24;-0.17;-31.48
0.03;-0.02;1.15;-0.00;-0.10;0.23;-2.21;-0.19;-31.47
0.02;-0.02;1.15;-0.08;0.55;2.15;-2.19;-0.19;-31.41
-0.03;0.00;1.14;0.31;0.02;15.16;-2.13;-0.16;-31.00
0.02;-0.01;1.14;1.56;0.36;34.56;-2.06;-0.16;-30.07
-0.04;0.04;1.16;3.08;-1.19;79.43;-1.90;-0.15;-27.92
-0.03;0.08;1.15;5.83;-2.53;162.81;-1.64;-0.19;-23.53
-0.04;0.07;1.14;9.98;-1.77;285.75;-1.27;-0.20;-15.81
0.03;0.07;1.12;15.30;-4.18;409.28;-0.77;-0.33;-4.76
0.25;0.12;1.13;20.53;3.39;445.71;-0.11;-0.46;7.27
0.07;0.14;1.11;22.52;-2.85;502.61;0.60;-0.59;20.34
0.10;0.07;1.11;22.89;-3.66;502.61;1.34;-0.79;35.92
-0.11;0.06;1.25;25.10;-0.94;502.61;2.03;-0.70;49.49
-0.04;0.16;1.11;26.92;5.65;502.61;2.83;-0.50;62.56
0.02;-0.02;1.11;21.37;-1.58;502.61;3.32;-0.55;76.13
-0.05;-0.30;1.18;21.18;-6.56;502.61;3.54;-0.67;89.70
-0.06;-0.02;1.15;28.69;3.23;502.61;4.22;-0.52;103.27
-0.14;-0.06;1.17;27.44;-4.97;502.61;4.80;-0.51;116.84
-0.34;0.06;1.34;20.98;-1.31;502.61;5.30;-0.26;130.41
-0.39;0.08;1.22;19.05;-6.44;476.93;5.76;-0.09;143.29
0.04;-0.18;1.17;12.17;0.25;290.79;5.97;-0.12;155.21
-0.03;-0.20;1.13;7.19;0.68;179.97;5.84;-0.07;160.07
-0.02;-0.13;1.13;5.92;1.53;99.98;5.75;-0.01;162.77
-0.05;0.12;1.19;2.05;2.75;19.43;5.80;0.11;163.29
0.14;-0.13;1.13;0.03;0.52;-19.96;5.57;-0.01;162.75
0.09;-0.20;1.15;-4.84;-5.06;-83.99;5.15;-0.22;160.49
0.02;-0.09;1.11;-8.99;2.43;-175.36;4.72;-0.17;155.75
-0.04;-0.04;1.08;-10.20;0.23;-235.01;4.31;-0.12;149.17
-0.11;-0.04;1.20;-10.24;4.66;-253.27;3.92;0.10;142.59
0.07;-0.23;1.20;-10.40;3.96;-304.67;3.35;0.14;134.06
0.01;-0.04;1.16;-8.27;22.58;-410.98;3.00;0.81;121.31
-0.39;0.12;1.22;27.02;67.81;-471.04;3.71;2.85;109.07
-0.01;0.09;1.25;-9.16;-1.02;-487.07;3.46;2.77;95.43
-0.15;-0.03;1.20;-13.69;-7.06;-497.93;3.01;2.67;82.48
-0.30;-0.01;1.11;-26.43;-29.86;-430.03;2.22;2.09;70.44
-0.11;-0.15;1.21;-41.40;-41.74;-356.20;0.95;1.04;60.83
0.06;-0.00;1.20;-20.72;-4.67;-472.00;0.38;0.84;48.08
0.05;-0.00;1.09;-23.66;1.29;-497.93;-0.26;0.81;34.64
-0.02;0.02;1.14;-21.50;2.94;-497.93;-0.82;0.89;20.70
-0.13;0.11;1.11;-23.39;-5.25;-497.93;-1.39;0.84;5.76
-0.34;0.21;1.18;-17.76;0.14;-477.29;-1.67;1.10;-7.13
0.17;-0.02;1.04;-14.05;5.88;-382.80;-2.05;1.06;-17.85
0.07;0.09;1.05;-16.27;1.96;-388.28;-2.33;1.02;-27.94
0.07;0.11;1.14;-12.03;-0.51;-296.40;-2.51;0.93;-36.24
0.01;0.03;1.15;-9.91;-0.25;-231.33;-2.68;0.89;-42.26
0.04;0.00;1.15;-4.12;-2.00;-80.05;-2.84;0.73;-46.42
-0.01;0.11;1.15;-0.95;-0.42;-32.28;-2.70;0.72;-47.32
0.03;0.00;1.14;-0.11;0.19;-9.18;-2.65;0.67;-47.57
0.02;-0.01;1.16;0.03;0.20;-0.11;-2.60;0.65;-47.57
0.03;-0.02;1.15;0.56;1.09;-0.14;-2.55;0.64;-47.58
0.04;-0.02;1.15;0.75;0.26;0.15;-2.50;0.59;-47.57
-0.10;0.06;1.16;1.79;1.68;42.67;-2.35;0.71;-46.42
-0.03;0.06;1.13;4.21;-0.39;114.84;-2.13;0.72;-43.44
0.06;0.11;1.14;7.92;-2.15;214.55;-1.78;0.59;-37.64
0.05;0.09;1.15;13.18;-3.57;347.34;-1.32;0.45;-28.61
-0.00;0.10;1.10;19.98;-4.51;495.88;-0.64;0.32;-14.73
-0.25;0.09;1.21;25.95;-4.35;502.61;0.12;0.41;-1.16
-0.28;0.30;1.20;25.73;-4.58;502.61;1.00;0.50;11.91
0.09;-0.25;1.18;26.02;-4.06;502.61;1.45;0.31;25.48
-0.18;0.10;1.26;25.80;-2.68;502.61;2.29;0.37;41.06
-0.22;0.14;1.16;26.47;-0.61;502.61;3.03;0.54;54.13
-0.04;-0.08;1.17;25.37;-2.19;502.61;3.57;0.51;67.70
-0.04;-0.21;1.15;26.56;9.17;502.61;4.00;0.77;81.27
-0.29;0.14;1.18;24.84;2.39;502.61;4.66;1.07;94.34
0.03;-0.17;1.09;12.58;-13.45;495.74;4.74;0.65;108.22
0.19;-0.22;1.19;14.70;5.82;357.69;4.85;0.64;117.88
-0.14;0.07;1.20;14.84;8.19;295.22;5.20;0.97;125.85
-0.27;0.23;1.14;7.22;-16.93;297.80;5.47;0.72;133.89
-0.12;-0.13;1.21;11.11;-2.54;308.67;5.53;0.74;141.91
0.03;-0.14;1.19;9.65;-3.52;251.07;5.58;0.60;149.45
0.08;-0.21;1.17;7.92;-0.13;180.01;5.48;0.52;154.31
-0.10;-0.12;1.16;6.46;4.78;97.45;5.43;0.73;156.84
0.02;-0.08;1.19;-1.98;-11.66;13.55;5.20;0.38;157.22
0.15;-0.08;1.09;-7.48;-14.10;-58.63;4.83;-0.15;155.64
0.09;-0.01;1.18;-4.53;0.25;-80.14;4.60;-0.23;153.47
0.18;-0.31;1.20;-4.27;-5.37;-133.16;4.14;-0.50;149.88
0.04;-0.24;1.20;-8.85;11.21;-272.83;3.60;-0.21;142.24
-0.16;-0.08;1.15;-5.57;23.47;-332.63;3.31;0.54;133.59
0.29;-0.14;1.05;-16.23;-5.48;-428.03;2.63;0.09;120.32
-0.10;-0.14;1.12;-12.05;16.00;-497.93;2.11;0.61;106.38
-0.36;-0.13;1.19;-6.69;15.56;-497.93;1.80;1.30;93.43
-0.19;-0.06;1.19;-12.23;-2.30;-447.22;1.39;1.38;80.91
-0.07;-0.16;1.09;-21.07;-11.00;-462.69;0.65;1.12;68.42
-0.31;-0.22;1.18;-24.98;-6.19;-497.93;-0.19;1.19;54.97
-0.06;-0.01;1.17;-16.67;2.20;-497.93;-0.64;1.28;41.53
0.01;0.09;1.10;-18.66;2.66;-497.93;-1.03;1.31;28.09
-0.26;-0.00;1.12;-15.40;1.13;-491.12;-1.42;1.58;14.83
-0.00;-0.01;1.13;-22.60;-8.47;-497.93;-2.08;1.29;-0.61
-0.56;0.21;1.18;-21.57;-0.87;-437.22;-2.47;1.68;-12.42
-0.09;0.41;1.22;-8.09;5.94;-288.29;-2.29;1.87;-20.20
0.95;-0.22;1.19;20.46;55.97;-385.58;-1.82;2.63;-30.61
0.18;0.04;0.54;-86.29;-27.08;-409.54;-3.93;1.54;-41.26
-0.02;-0.09;0.92;-9.60;20.19;-371.42;-4.22;2.06;-51.29
-0.32;-0.05;1.08;-7.13;6.69;-193.68;-4.37;2.52;-56.71
0.03;0.08;1.14;-9.83;-1.86;-147.19;-4.45;2.39;-60.54
0.14;0.06;1.13;-4.34;-3.00;-65.97;-4.43;2.13;-62.38
0.01;0.17;1.17;-1.51;1.04;-38.41;-4.22;2.11;-63.42
-0.08;0.05;1.14;-0.87;-2.53;-7.99;-4.12;2.04;-63.73
-0.01;-0.00;1.13;0.56;1.36;18.44;-4.03;2.04;-63.23
0.03;-0.03;1.14;1.66;-1.35;31.07;-3.94;1.94;-62.40
-0.01;0.00;1.15;0.40;-0.65;9.31;-3.85;1.89;-62.14
0.03;-0.02;1.15;-0.47;-0.53;0.36;-3.80;1.81;-62.13
0.06;0.03;1.13;1.59;-1.35;62.81;-3.62;1.65;-58.87
0.07;0.05;1.15;4.92;-1.29;120.15;-3.36;1.52;-55.38
-0.05;-0.01;1.16;6.09;-1.34;144.56;-3.14;1.50;-51.48
-0.03;-0.03;1.15;4.64;-0.21;113.80;-2.98;1.49;-48.41
-0.02;-0.03;1.18;3.47;-2.30;95.81;-2.85;1.42;-45.82
0.06;-0.03;1.09;2.06;1.07;59.05;-2.76;1.36;-43.99
-0.01;-0.03;1.17;1.71;0.77;37.45;-2.69;1.36;-42.98
0.05;-0.02;1.12;1.82;-0.13;46.81;-2.61;1.27;-41.72
0.01;-0.04;1.16;0.38;0.83;22.90;-2.59;1.26;-41.12
0.06;-0.05;1.14;0.09;2.33;11.00;-2.58;1.25;-40.81
0.06;-0.03;1.12;-1.07;0.92;2.49;-2.59;1.19;-40.75
0.02;-0.02;1.16;-0.14;-1.35;-0.22;-2.56;1.11;-40.75
0.03;-0.02;1.14;-0.17;-0.36;-0.43;-2.54;1.05;-40.76
0.04;-0.02;1.15;-0.00;0.23;-0.08;-2.51;1.00;-40.77
0.03;-0.02;1.15;0.20;0.04;0.10;-2.47;0.96;-40.76
0.03;-0.02;1.15;-0.12;-0.15;0.18;-2.45;0.90;-40.76
0.03;-0.03;1.15;-0.18;-0.47;-0.35;-2.43;0.85;-40.77
0.03;-0.02;1.15;0.34;-0.22;-0.06;-2.40;0.79;-40.77
0.03;-0.03;1.15;0.08;-0.19;-0.31;-2.37;0.74;-40.78
0.03;-0.02;1.14;0.38;0.13;0.04;-2.34;0.70;-40.78
0.02;-0.02;1.15;0.26;0.08;-0.17;-2.30;0.66;-40.78
0.02;-0.02;1.15;-0.17;-0.36;-0.26;-2.28;0.61;-40.79
0.03;-0.02;1.15;0.41;-0.10;0.61;-2.24;0.57;-40.77
0.04;-0.03;1.12;0.18;1.09;-0.20;-2.22;0.55;-40.78
0.05;-0.03;1.11;0.08;1.42;0.24;-2.20;0.53;-40.77
0.03;-0.01;1.16;-0.21;-1.25;-0.14;-2.17;0.46;-40.77
0.03;-0.02;1.14;0.21;1.78;-0.23;-2.14;0.47;-40.78
0.02;-0.02;1.15;0.05;0.91;0.27;-2.12;0.46;-40.77
0.03;-0.02;1.14;-0.23;-0.30;-0.05;-2.11;0.41;-40.77
0.03;-0.02;1.15;0.12;0.14;0.32;-2.08;0.38;-40.77
0.03;-0.02;1.16;0.14;-1.57;0.03;-2.05;0.31;-40.76
0.02;-0.02;1.15;-0.55;-2.90;-0.16;-2.04;0.21;-40.77
0.04;-0.02;1.14;1.02;0.92;2.55;-2.00;0.19;-40.70
0.04;-0.02;1.15;1.31;3.56;1.23;-1.95;0.24;-40.67
0.02;-0.02;1.15;0.70;1.67;-0.22;-1.91;0.26;-40.67
0.03;-0.02;1.14;1.07;2.65;0.10;-1.86;0.29;-40.67
0.03;-0.02;1.16;0.05;-0.80;0.88;-1.84;0.24;-40.65
0.03;-0.03;1.15;1.02;1.35;3.71;-1.80;0.25;-40.55
0.04;-0.02;1.14;1.25;2.86;2.44;-1.76;0.28;-40.48
0.02;-0.02;1.15;0.14;-0.87;0.70;-1.74;0.23;-40.46
0.03;-0.03;1.13;0.90;1.78;1.31;-1.70;0.25;-40.43
-0.00;-0.01;1.14;-0.35;-1.72;6.18;-1.69;0.20;-40.26
0.05;-0.03;1.14;0.14;0.40;7.13;-1.68;0.16;-40.07
0.03;-0.02;1.13;-0.21;0.08;2.79;-1.67;0.13;-39.99
ACCX;ACCY;ACCZ;GYROX;GYROY;GYROZ;ANGLX;ANGLY;ANGLZ
0.03;-0.02;1.15;0.00;0.04;0.17;-0.02;0.27;1.25
0.03;-0.02;1.15;-0.40;-0.02;0.31;-0.05;0.23;1.26
0.03;-0.02;1.14;-0.17;-0.26;0.22;-0.08;0.19;1.26
0.03;-0.02;1.15;0.11;-0.05;0.06;-0.09;0.16;1.26
0.03;-0.02;1.15;-0.05;0.13;-0.09;-0.11;0.13;1.26
0.03;-0.03;1.15;0.02;0.15;-0.32;-0.13;0.11;1.25
0.03;-0.02;1.15;-0.05;-0.20;-0.03;-0.15;0.07;1.25
0.03;-0.02;1.15;0.23;0.01;0.00;-0.16;0.04;1.25
0.03;-0.02;1.15;0.09;-0.02;-0.21;-0.18;0.02;1.25
0.03;-0.03;1.15;0.06;-0.04;-0.01;-0.20;-0.01;1.25
0.03;-0.02;1.13;-0.02;0.13;0.23;-0.21;-0.04;1.25
0.02;-0.02;1.16;-0.18;-0.02;0.09;-0.23;-0.06;1.26
0.03;-0.02;1.14;-0.12;-0.33;0.20;-0.25;-0.10;1.26
0.03;-0.02;1.15;0.20;-0.14;-0.20;-0.26;-0.12;1.26
0.03;-0.02;1.15;0.21;0.01;-0.18;-0.27;-0.15;1.25
0.03;-0.02;1.16;-0.03;0.38;0.11;-0.29;-0.16;1.25
0.03;-0.02;1.14;0.24;0.01;0.06;-0.30;-0.19;1.26
0.03;-0.02;1.15;-0.18;-0.10;0.05;-0.32;-0.21;1.26
0.03;-0.02;1.15;-0.03;0.25;-0.01;-0.33;-0.23;1.26
0.03;-0.02;1.14;-0.08;-0.17;0.12;-0.35;-0.25;1.26
0.03;-0.02;1.14;-0.12;0.06;-0.10;-0.37;-0.28;1.26
0.03;-0.03;1.15;-0.18;0.27;0.23;-0.39;-0.30;1.26
0.02;-0.02;1.14;0.08;0.03;0.15;-0.40;-0.31;1.27
0.02;-0.02;1.16;-0.06;-0.22;0.20;-0.41;-0.34;1.27
0.03;-0.02;1.14;0.00;-0.19;0.09;-0.42;-0.37;1.27
0.03;-0.02;1.14;0.00;0.15;0.22;-0.43;-0.39;1.28
0.03;-0.03;1.15;0.20;-0.00;-0.17;-0.44;-0.40;1.28
0.03;-0.02;1.14;-0.06;0.03;0.09;-0.45;-0.42;1.28
0.02;-0.02;1.16;-0.17;0.10;-0.12;-0.47;-0.43;1.28
0.03;-0.02;1.15;-0.18;-0.11;-0.30;-0.48;-0.46;1.27
0.03;-0.03;1.15;-0.06;-0.36;0.26;-0.50;-0.51;1.29
0.03;-0.02;1.15;0.08;0.51;-0.09;-0.51;-0.51;1.29
0.02;-0.02;1.14;0.14;0.10;-0.07;-0.51;-0.52;1.29
0.03;-0.02;1.15;-0.14;-0.19;0.00;-0.53;-0.54;1.29
0.03;-0.02;1.14;0.12;-0.16;0.32;-0.53;-0.56;1.30
0.02;-0.02;1.15;0.11;0.06;-0.09;-0.54;-0.57;1.29
0.03;-0.01;1.14;0.21;-0.16;0.29;-0.54;-0.59;1.30
0.03;-0.02;1.16;0.05;0.12;0.09;-0.55;-0.60;1.30
0.02;-0.03;1.15;0.05;0.06;-0.07;-0.56;-0.61;1.30
0.03;-0.03;1.14;0.03;0.01;-0.35;-0.58;-0.63;1.29
0.03;-0.02;1.14;-0.08;-0.40;-0.06;-0.59;-0.65;1.29
0.03;-0.02;1.15;0.20;0.04;-0.32;-0.59;-0.67;1.28
0.03;-0.02;1.14;-0.09;-0.04;-0.20;-0.60;-0.69;1.28
0.02;-0.02;1.15;-0.11;-0.20;0.12;-0.61;-0.71;1.28
0.02;-0.02;1.15;-0.12;-0.05;0.37;-0.62;-0.72;1.29
0.02;-0.02;1.16;-0.02;-0.39;-0.27;-0.63;-0.73;1.28
0.03;-0.02;1.14;0.14;0.09;0.06;-0.64;-0.75;1.28
0.03;-0.02;1.14;-0.05;-0.10;0.46;-0.64;-0.76;1.30
0.02;-0.03;1.15;0.03;-0.10;-0.18;-0.65;-0.77;1.29
0.03;-0.02;1.14;0.34;-0.31;0.05;-0.65;-0.79;1.29
0.03;-0.02;1.15;-0.05;-0.00;0.17;-0.66;-0.81;1.30
0.03;-0.02;1.14;0.17;-0.07;0.60;-0.66;-0.82;1.31
0.03;-0.02;1.14;-0.03;0.10;0.25;-0.67;-0.83;1.32
0.03;-0.02;1.15;0.08;-0.04;-0.01;-0.68;-0.84;1.32
0.02;-0.02;1.14;0.05;0.16;0.00;-0.69;-0.84;1.32
0.03;-0.02;1.15;0.09;0.16;0.34;-0.69;-0.85;1.33
0.03;-0.02;1.15;-0.12;-0.11;-0.03;-0.71;-0.86;1.33
0.04;-0.02;1.15;0.03;0.44;-0.03;-0.71;-0.86;1.33
0.03;-0.02;1.14;-0.23;0.29;-0.18;-0.72;-0.86;1.32
0.03;-0.02;1.15;-0.11;0.06;-0.06;-0.73;-0.88;1.32
0.03;-0.02;1.15;0.12;0.18;-0.06;-0.73;-0.89;1.32
0.03;-0.02;1.15;-0.17;0.06;0.19;-0.74;-0.90;1.32
0.03;-0.02;1.15;0.15;0.19;-0.23;-0.74;-0.90;1.32
0.02;-0.03;1.14;-0.03;0.24;-0.36;-0.76;-0.90;1.31
0.03;-0.02;1.15;-0.05;0.10;-0.09;-0.76;-0.91;1.31
0.02;-0.01;1.14;-0.02;0.13;-0.09;-0.76;-0.91;1.30
0.03;-0.02;1.14;0.03;-0.19;0.08;-0.77;-0.93;1.31
0.03;-0.02;1.15;-0.21;-0.07;-0.09;-0.78;-0.94;1.30
0.03;-0.02;1.15;-0.41;-0.04;-0.06;-0.79;-0.96;1.30
0.03;-0.02;1.14;0.21;0.10;0.25;-0.79;-0.97;1.31
0.03;-0.01;1.15;0.06;0.06;0.00;-0.79;-0.97;1.31
0.03;-0.03;1.15;0.00;-0.07;-0.01;-0.80;-0.99;1.31
0.03;-0.02;1.14;-0.02;0.45;0.14;-0.81;-0.98;1.31
0.03;-0.01;1.15;-0.43;0.27;0.03;-0.82;-0.98;1.31
0.03;-0.02;1.15;0.03;0.24;0.02;-0.82;-0.99;1.31
0.03;-0.03;1.15;0.02;-0.49;0.15;-0.83;-1.00;1.32
0.03;-0.02;1.14;0.11;-0.11;-0.36;-0.83;-1.02;1.31
0.03;-0.02;1.14;-0.06;-0.07;-0.01;-0.84;-1.03;1.31
0.03;-0.01;1.15;-0.05;0.18;-0.04;-0.84;-1.03;1.31
0.03;-0.02;1.15;0.09;-0.40;-0.09;-0.84;-1.05;1.30
0.03;-0.02;1.15;0.02;0.18;0.12;-0.85;-1.05;1.31
0.03;-0.03;1.14;0.21;-0.10;-0.03;-0.85;-1.06;1.31
0.03;-0.01;1.15;0.09;-0.11;-0.09;-0.84;-1.08;1.30
0.03;-0.02;1.15;-0.14;-0.10;-0.10;-0.85;-1.08;1.30
0.03;-0.02;1.15;0.12;0.53;-0.10;-0.85;-1.07;1.30
0.02;-0.02;1.15;0.06;-0.31;-0.21;-0.85;-1.08;1.29
0.03;-0.01;1.15;0.26;-0.07;0.06;-0.84;-1.09;1.29
0.02;-0.02;1.14;-0.06;0.15;0.22;-0.85;-1.09;1.30
0.03;-0.02;1.15;0.17;0.19;-0.01;-0.84;-1.08;1.30
0.03;-0.02;1.14;-0.27;0.22;0.08;-0.85;-1.08;1.30
0.02;-0.02;1.14;-0.03;0.10;0.41;-0.86;-1.08;1.31
0.02;-0.02;1.15;0.08;-0.05;0.20;-0.86;-1.08;1.32
0.02;-0.02;1.14;-0.26;-0.08;0.15;-0.87;-1.09;1.32
0.03;-0.02;1.14;0.38;0.10;-0.23;-0.86;-1.09;1.32
0.02;-0.02;1.14;0.05;-0.08;0.06;-0.87;-1.09;1.32
0.03;-0.02;1.14;-0.24;0.03;0.06;-0.87;-1.10;1.32
0.02;-0.02;1.15;0.11;-0.22;-0.10;-0.88;-1.10;1.32
0.03;-0.02;1.15;0.15;-0.04;0.06;-0.87;-1.11;1.32
0.03;-0.02;1.15;0.14;-0.11;0.38;-0.87;-1.12;1.33
0.03;-0.02;1.15;0.03;-0.13;0.02;-0.87;-1.13;1.33
0.03;-0.02;1.15;0.20;0.19;-0.10;-0.87;-1.13;1.33
0.03;-0.02;1.15;0.00;0.04;-0.21;-0.87;-1.13;1.32
0.03;-0.02;1.14;0.06;0.03;0.19;-0.88;-1.14;1.33
0.03;-0.02;1.15;-0.18;-0.55;0.35;-0.89;-1.16;1.33
0.03;-0.02;1.15;0.11;0.30;0.09;-0.89;-1.16;1.34
0.03;-0.02;1.16;-0.46;0.07;-0.29;-0.90;-1.16;1.33
0.02;-0.02;1.14;0.03;-0.11;0.45;-0.91;-1.16;1.34
0.03;-0.02;1.15;-0.11;0.18;-0.36;-0.92;-1.16;1.33
0.03;-0.02;1.14;0.29;-0.29;-0.24;-0.91;-1.18;1.33
0.02;-0.02;1.14;0.05;0.06;0.20;-0.92;-1.18;1.33
0.03;-0.02;1.15;-0.03;0.12;-0.09;-0.92;-1.18;1.33
0.03;-0.02;1.15;-0.09;0.25;0.03;-0.93;-1.17;1.33
0.02;-0.02;1.14;-0.03;0.12;0.15;-0.93;-1.16;1.33
0.03;-0.02;1.15;0.14;0.04;-0.04;-0.93;-1.17;1.33
0.02;-0.02;1.15;-0.18;0.04;0.03;-0.94;-1.17;1.33
0.03;-0.02;1.14;0.17;0.30;0.09;-0.94;-1.16;1.34
0.03;-0.02;1.15;0.27;0.13;0.20;-0.93;-1.16;1.34
0.03;-0.02;1.15;0.17;-0.04;-0.09;-0.93;-1.17;1.34
0.02;-0.02;1.16;-0.14;-0.04;-0.18;-0.94;-1.17;1.34
0.03;-0.02;1.15;-0.05;-0.05;0.17;-0.94;-1.17;1.34
0.03;-0.03;1.15;0.27;0.19;-0.07;-0.94;-1.17;1.34
0.02;-0.02;1.14;-0.09;-0.43;0.11;-0.94;-1.18;1.34
0.02;-0.02;1.14;0.00;-0.65;-0.12;-0.94;-1.20;1.34
0.03;-0.02;1.14;-0.27;-0.33;0.25;-0.95;-1.21;1.34
0.03;-0.02;1.15;-0.26;-0.81;0.19;-0.96;-1.23;1.35
0.03;-0.02;1.14;0.09;-0.17;0.26;-0.96;-1.24;1.36
0.03;-0.02;1.14;0.34;0.19;0.09;-0.95;-1.24;1.36
0.03;-0.02;1.14;0.43;2.59;-0.01;-0.94;-1.18;1.36
0.02;-0.02;1.15;0.20;0.35;0.23;-0.94;-1.17;1.36
0.02;-0.02;1.14;0.32;0.12;-0.33;-0.93;-1.16;1.35
0.02;-0.02;1.14;0.09;0.32;0.02;-0.93;-1.16;1.35
0.11;0.06;1.16;3.16;-1.01;78.22;-0.78;-1.26;3.39
0.03;0.08;1.17;2.86;0.12;66.80;-0.59;-1.26;5.46
0.02;0.06;1.15;5.53;-0.62;163.71;-0.37;-1.27;9.88
0.04;0.11;1.13;10.60;-2.25;255.33;0.01;-1.34;16.52
-0.04;0.10;1.11;13.97;-2.71;352.57;0.48;-1.35;26.04
0.02;0.06;1.15;14.87;-4.63;371.90;0.93;-1.47;36.45
-0.22;0.23;1.16;15.68;-5.84;386.38;1.50;-1.41;46.50
-0.15;-0.03;1.15;18.50;-2.31;456.89;1.95;-1.30;59.29
0.11;-0.10;1.19;17.39;-2.14;461.15;2.27;-1.42;71.28
0.02;0.03;1.18;16.99;1.84;434.69;2.72;-1.35;83.45
0.13;0.04;1.17;17.50;3.52;401.28;3.17;-1.35;94.29
-0.09;0.06;1.13;18.69;15.87;368.70;3.70;-0.78;105.35
-0.21;0.07;1.12;14.73;0.58;395.62;4.10;-0.54;116.42
-0.08;-0.10;1.20;13.34;2.73;429.80;4.28;-0.38;128.03
0.33;-0.23;1.07;12.89;11.67;392.11;4.63;-0.10;147.24
0.08;-0.16;1.09;14.82;-3.88;325.93;4.80;-0.28;156.69
-0.15;-0.18;1.22;8.31;35.69;269.48;4.78;0.79;163.97
0.00;-0.02;1.09;1.10;11.95;241.45;4.68;1.10;170.49
0.01;-0.07;1.17;6.40;-15.76;180.41;4.69;0.66;175.18
0.13;-0.08;1.12;2.89;-20.39;102.12;4.59;0.01;177.83
-0.10;-0.10;1.19;-1.18;-15.62;39.50;4.37;-0.38;179.06
-0.04;-0.10;1.13;-1.36;-6.10;9.15;4.15;-0.49;179.30
0.03;-0.03;1.16;-2.23;-2.57;-8.65;3.98;-0.58;179.06
-0.01;-0.02;1.15;-0.93;-1.09;-14.06;3.86;-0.59;178.68
0.02;-0.03;1.16;-2.12;-12.13;-16.06;3.70;-0.90;178.27
0.04;-0.02;1.14;-2.46;-5.03;-38.75;3.54;-1.05;177.22
0.00;-0.03;1.15;-2.98;-8.16;-77.40;3.36;-1.25;175.13
-0.01;0.04;1.16;-4.81;-1.12;-117.83;3.21;-1.24;171.95
-0.04;-0.06;1.11;-7.92;-4.65;-162.20;2.87;-1.31;167.57
0.07;-0.20;1.15;-11.08;-5.07;-227.94;2.32;-1.48;161.19
-0.04;-0.06;1.15;-13.01;4.77;-287.28;1.83;-1.27;152.57
-0.04;-0.08;1.17;-11.28;8.64;-296.91;1.42;-0.98;144.55
0.16;-0.15;1.12;-11.76;9.58;-328.82;0.94;-0.85;135.67
0.16;-0.21;1.15;-12.32;12.90;-379.43;0.41;-0.63;125.43
-0.14;0.02;1.12;-13.31;2.03;-416.81;0.07;-0.43;114.18
-0.32;-0.03;1.20;-16.44;-3.39;-367.08;-0.39;-0.21;104.26
-0.04;-0.05;1.16;-12.43;20.44;-354.96;-0.76;0.37;94.68
0.10;-0.01;1.20;-15.44;33.86;-390.94;-1.16;1.16;84.12
0.07;-0.05;1.15;-22.96;-8.58;-453.97;-1.80;0.85;71.87
-0.09;-0.06;1.14;-18.64;-10.62;-497.89;-2.39;0.59;56.43
-0.27;0.05;1.13;-18.37;3.48;-497.89;-2.78;0.93;42.99
-0.11;0.02;1.19;-13.88;5.02;-395.05;-3.08;1.15;32.32
0.14;0.10;1.13;-9.82;-1.36;-309.45;-3.19;0.96;23.97
0.01;0.10;1.14;-12.73;3.83;-221.22;-3.38;1.04;17.77
-0.07;0.15;1.14;0.11;-4.89;-79.30;-3.17;0.96;15.71
-0.04;0.01;1.13;7.66;-11.00;16.19;-2.88;0.68;16.17
0.09;0.04;1.14;0.75;-0.69;27.62;-2.77;0.55;16.91
0.07;0.04;1.14;-1.04;-0.22;4.86;-2.70;0.47;17.04
0.03;0.04;1.15;-0.61;1.23;-0.47;-2.63;0.47;17.03
0.03;-0.04;1.15;-1.54;3.40;-5.10;-2.66;0.54;16.87
0.01;-0.06;1.15;-5.27;6.48;-29.66;-2.80;0.68;16.10
0.04;-0.03;1.14;-3.44;1.16;-103.43;-2.87;0.66;13.20
0.02;-0.05;1.15;-5.13;-0.43;-139.46;-2.99;0.61;9.58
0.02;-0.09;1.15;-6.44;1.49;-175.14;-3.20;0.62;4.67
0.05;-0.14;1.17;-6.89;1.90;-202.21;-3.45;0.61;-0.78
0.06;-0.14;1.14;-13.33;5.96;-239.19;-3.86;0.70;-7.24
0.02;-0.06;1.14;-14.24;8.09;-313.14;-4.23;0.88;-15.70
0.00;-0.03;1.28;-13.45;4.38;-337.34;-4.54;0.98;-25.14
0.10;-0.04;1.15;-13.34;-0.91;-438.53;-5.00;0.83;-42.68
0.15;-0.03;1.13;-13.31;1.55;-404.70;-5.28;0.70;-53.61
0.08;-0.13;1.09;-14.79;3.02;-364.73;-5.70;0.69;-63.46
-0.05;-0.12;1.14;-15.36;7.34;-342.90;-6.12;0.92;-73.06
0.05;0.09;1.08;-13.54;5.23;-331.66;-6.27;0.99;-82.02
-0.17;-0.14;1.16;-15.05;5.58;-368.10;-6.66;1.27;-91.95
-0.04;-0.09;1.12;-12.55;3.83;-334.15;-6.95;1.38;-100.98
-0.09;-0.09;1.21;-1.85;-5.88;-314.26;-6.94;1.28;-109.46
0.20;0.13;1.14;-5.47;-0.78;-254.85;-6.84;1.05;-116.34
-0.05;-0.04;1.15;0.21;-9.61;-214.44;-6.73;0.80;-122.78
-0.08;-0.01;1.16;-7.07;-0.48;-203.55;-6.80;0.84;-128.47
-0.09;-0.01;1.22;-6.58;-1.15;-173.25;-6.85;0.88;-133.15
-0.07;0.01;1.20;-7.07;6.13;-159.74;-6.89;1.08;-137.31
0.07;0.00;1.15;-4.61;3.09;-137.22;-6.88;1.07;-141.15
-0.01;0.01;1.20;-3.42;-1.79;-97.59;-6.90;0.97;-146.22
0.02;-0.04;1.14;-2.90;1.09;-85.08;-6.88;0.97;-148.60
-0.03;-0.04;1.13;-2.66;-3.10;-62.35;-6.86;0.90;-150.23
-0.06;0.00;1.16;-1.88;2.03;-40.33;-6.77;1.00;-151.36
-0.03;0.02;1.14;-1.62;-1.03;-25.66;-6.66;0.98;-152.05
-0.00;0.01;1.14;-0.29;0.99;-5.02;-6.53;0.99;-152.20
0.02;-0.02;1.15;0.12;-0.29;-0.29;-6.41;0.94;-152.21
0.04;-0.03;1.15;0.52;0.79;0.02;-6.30;0.91;-152.21
0.03;-0.03;1.15;0.56;1.63;0.08;-6.19;0.91;-152.20
0.03;-0.03;1.14;-0.09;1.31;-0.06;-6.10;0.89;-152.21
0.03;-0.02;1.15;0.44;0.97;-0.01;-5.98;0.88;-152.21
0.03;-0.03;1.14;-0.15;-0.16;-0.14;-5.90;0.83;-152.21
0.03;-0.03;1.14;-0.44;0.33;-0.18;-5.82;0.80;-152.21
0.03;-0.03;1.14;0.53;2.33;-4.00;-5.72;0.81;-152.32
0.05;-0.05;1.15;-0.31;0.15;-7.25;-5.66;0.76;-152.54
0.02;-0.02;1.14;0.05;0.30;-1.89;-5.57;0.72;-152.59
0.03;-0.02;1.14;0.00;-0.19;-0.82;-5.48;0.68;-152.61
0.02;-0.03;1.15;-0.21;-0.25;-0.43;-5.41;0.63;-152.62
0.03;-0.03;1.14;-0.38;-0.05;-0.20;-5.33;0.59;-152.63
0.03;-0.03;1.15;-0.15;0.19;-2.78;-5.26;0.56;-152.70
0.03;-0.03;1.15;0.05;-0.51;-3.71;-5.18;0.51;-152.80
0.02;-0.02;1.14;-0.50;-1.94;-2.78;-5.11;0.42;-152.88
0.03;-0.03;1.15;0.20;-0.55;-0.58;-5.03;0.37;-152.89
0.03;-0.03;1.15;-0.27;-0.29;-0.12;-4.97;0.33;-152.89
0.03;-0.03;1.15;0.26;0.01;-0.70;-4.89;0.29;-152.92
0.03;-0.03;1.15;0.12;-0.05;-3.23;-4.82;0.26;-153.00
0.03;-0.02;1.15;-0.21;-0.07;-4.91;-4.75;0.22;-153.13
0.03;-0.02;1.15;-0.06;-0.25;-2.15;-4.67;0.18;-153.19
0.03;-0.03;1.16;-0.03;0.13;-2.04;-4.61;0.15;-153.25
0.03;-0.03;1.15;0.02;-0.23;-4.84;-4.55;0.12;-153.38
0.03;-0.02;1.15;-0.08;-0.20;-2.36;-4.48;0.08;-153.44
0.03;-0.03;1.15;0.12;0.21;-0.23;-4.42;0.05;-153.45
0.03;-0.02;1.15;-0.15;0.16;-0.30;-4.36;0.03;-153.45
0.03;-0.03;1.15;0.06;0.45;-0.10;-4.29;0.02;-153.46
0.03;-0.03;1.15;0.05;-0.31;-0.10;-4.24;-0.02;-153.46
0.03;-0.03;1.15;0.15;-0.48;0.00;-4.18;-0.06;-153.46
0.03;-0.03;1.15;-0.11;0.12;-0.12;-4.12;-0.08;-153.46
0.02;-0.02;1.15;0.14;0.67;0.00;-4.06;-0.09;-153.46
0.03;-0.03;1.14;-0.06;-0.37;-0.78;-4.01;-0.12;-153.48
0.03;-0.02;1.15;0.67;1.32;-2.01;-3.93;-0.11;-153.54
0.02;-0.03;1.14;0.11;0.50;-5.63;-3.88;-0.12;-153.69
0.02;-0.03;1.14;-0.26;0.70;-5.62;-3.84;-0.12;-153.84
0.03;-0.03;1.15;0.11;1.16;-3.83;-3.79;-0.11;-153.95
0.03;-0.02;1.15;-0.40;-0.31;-1.98;-3.75;-0.15;-154.01
0.02;-0.03;1.15;0.00;0.56;-1.77;-3.70;-0.15;-154.06
0.02;-0.03;1.15;1.07;0.87;-5.98;-3.63;-0.15;-154.22
0.05;-0.03;1.14;0.99;1.37;-13.11;-3.56;-0.16;-154.57
-0.00;-0.02;1.15;0.15;0.01;-7.98;-3.50;-0.15;-154.79
0.03;-0.02;1.14;1.94;4.22;-3.49;-3.41;-0.07;-154.89
0.02;-0.03;1.14;0.40;0.01;-0.03;-3.36;-0.09;-154.89
0.03;-0.02;1.14;0.32;0.30;0.08;-3.30;-0.11;-154.88
0.03;-0.02;1.16;0.02;-0.10;-0.09;-3.26;-0.14;-154.89
-0.06;-0.00;1.14;-0.17;0.64;6.95;-3.20;-0.06;-154.70
0.05;-0.03;1.14;0.27;-0.91;34.49;-3.16;-0.13;-153.66
0.07;-0.03;1.14;-0.43;-6.42;53.06;-3.13;-0.38;-152.18
0.07;0.05;1.14;1.85;-3.53;89.07;-2.98;-0.53;-149.77
0.04;0.11;1.13;4.99;-0.51;143.68;-2.68;-0.57;-145.89
-0.05;0.06;1.11;10.26;-1.00;263.97;-2.06;-0.57;-132.43
-0.09;0.15;1.18;14.40;0.90;351.56;-1.48;-0.45;-122.59
-0.06;-0.07;1.16;16.29;-2.29;402.92;-1.07;-0.45;-111.31
-0.22;-0.02;1.19;15.80;-4.77;417.62;-0.64;-0.36;-99.61
-0.03;0.00;1.21;17.42;-4.66;449.25;-0.18;-0.45;-87.93
0.04;-0.02;1.08;20.92;-1.41;502.64;0.64;-0.53;-67.32
-0.19;-0.24;1.13;17.71;0.35;498.29;0.90;-0.35;-53.87
-0.05;-0.06;1.14;17.07;-2.33;471.01;1.28;-0.36;-41.15
-0.19;0.23;1.15;19.68;-0.62;501.96;1.96;-0.22;-27.60
0.12;-0.21;1.17;26.44;-7.15;502.64;2.47;-0.51;-13.53
0.06;-0.30;1.12;16.72;1.28;435.27;2.56;-0.51;-2.21
-0.10;-0.15;1.19;8.56;-5.26;224.46;2.60;-0.57;4.08
0.17;-0.09;1.05;2.95;-0.14;111.54;2.55;-0.72;7.09
-0.04;0.01;1.15;3.18;-2.57;73.70;2.59;-0.73;9.08
-0.06;-0.10;1.25;2.06;2.61;43.16;2.50;-0.60;10.24
0.05;-0.11;1.15;1.39;1.46;30.83;2.39;-0.59;11.20
0.09;-0.11;1.13;1.39;2.70;18.38;2.27;-0.60;11.68
0.03;-0.02;1.14;-0.18;0.15;-0.06;2.20;-0.61;11.68
0.03;-0.02;1.14;0.03;-0.31;0.32;2.13;-0.63;11.68
0.03;-0.03;1.15;0.27;-0.71;-0.01;2.07;-0.67;11.68
0.03;-0.03;1.14;-0.29;1.34;-2.67;1.99;-0.64;11.61
0.05;-0.13;1.13;-2.93;-1.49;-69.05;1.75;-0.71;9.75
0.03;-0.04;1.16;-2.70;-1.24;-63.71;1.61;-0.75;8.03
-0.01;0.06;1.15;-2.90;-3.20;-58.58;1.56;-0.82;6.44
0.05;-0.01;1.15;-1.02;-0.31;-36.99;1.49;-0.85;5.48
-0.00;0.02;1.14;-0.32;0.87;-25.28;1.47;-0.81;4.70
0.04;-0.04;1.15;-0.44;0.64;-23.81;1.40;-0.82;4.06
0.02;0.01;1.15;-1.10;0.09;-26.81;1.35;-0.82;3.33
0.02;-0.01;1.15;-0.56;0.18;-16.41;1.30;-0.81;2.89
0.03;-0.01;1.14;-0.47;-0.48;-4.64;1.25;-0.84;2.76
0.03;-0.02;1.15;-0.24;0.45;0.02;1.19;-0.84;2.76
0.02;-0.02;1.15;-0.20;-0.28;-0.24;1.15;-0.85;2.76
0.01;-0.02;1.15;-0.11;-0.26;0.69;1.10;-0.85;2.78
0.05;-0.01;1.17;-0.09;-3.47;29.77;1.07;-0.97;3.58
-0.04;0.02;1.14;1.15;-3.91;88.87;1.10;-1.02;6.07
0.01;0.15;1.14;10.21;-6.20;272.29;1.52;-1.19;13.97
0.14;0.14;1.06;16.15;-2.11;388.80;2.05;-1.35;24.46
0.07;0.18;1.12;18.69;-0.28;440.49;2.67;-1.40;36.36
-0.01;0.10;1.10;24.24;-0.77;502.64;3.33;-1.38;49.42
-0.20;0.08;1.16;26.90;-4.08;502.64;4.05;-1.28;63.00
-0.07;0.06;1.24;22.41;-2.57;502.64;4.61;-1.26;76.57
0.16;-0.01;1.18;20.73;-4.78;502.64;5.04;-1.51;89.64
-0.18;0.24;1.18;19.04;-1.16;472.77;5.64;-1.36;102.40
-0.35;0.10;1.25;19.31;-1.42;474.20;6.11;-1.08;115.20
-0.21;-0.02;1.25;19.22;-7.33;461.67;6.49;-1.07;127.67
-0.14;-0.02;1.19;21.63;15.08;470.17;7.00;-0.45;142.24
-0.15;0.00;1.05;21.05;25.75;473.04;7.42;0.40;155.02
-0.25;0.03;1.31;12.40;6.16;475.51;7.62;0.77;167.86
-0.03;-0.11;1.20;8.89;-7.64;429.04;7.61;0.57;179.87
0.09;-0.17;1.24;9.07;-14.08;370.86;7.54;0.12;189.51
-0.04;-0.31;1.25;7.57;-22.43;282.03;7.33;-0.47;197.41
-0.15;-0.11;1.10;7.57;10.44;198.11;7.28;-0.04;202.76
-0.04;-0.11;1.21;10.56;27.81;112.15;7.30;0.70;205.67
-0.02;-0.18;1.16;4.55;-2.45;24.67;7.11;0.64;206.36
0.13;-0.03;1.13;-4.37;-5.52;-35.43;6.81;0.33;205.27
-0.02;-0.07;1.18;-1.60;4.18;-33.95;6.57;0.45;204.38
-0.04;-0.01;1.22;-1.56;2.54;-24.79;6.39;0.55;203.69
0.02;-0.01;1.15;-0.37;-0.58;-0.01;6.23;0.48;203.69
0.02;-0.02;1.14;-0.52;-0.37;0.46;6.06;0.44;203.70
0.02;-0.03;1.15;0.06;-0.19;-10.62;5.92;0.41;203.42
0.03;-0.03;1.14;0.41;-3.85;-9.51;5.79;0.27;203.16
-0.00;-0.06;1.13;-0.41;-3.49;-22.67;5.60;0.18;202.55
-0.00;-0.04;1.15;-2.79;1.20;-37.48;5.38;0.21;201.57
0.01;-0.05;1.11;-1.19;-1.67;-51.01;5.20;0.15;200.19
0.17;-0.04;1.16;-5.57;-21.78;-90.91;4.89;-0.68;197.38
0.00;-0.27;1.07;-6.63;-4.20;-137.22;4.34;-0.78;193.81
-0.12;-0.22;1.15;-9.30;-2.55;-227.92;3.82;-0.73;187.65
-0.16;-0.16;1.25;-13.37;0.32;-325.62;3.24;-0.57;178.54
-0.00;-0.20;1.11;-18.24;6.16;-425.01;2.51;-0.40;167.49
-0.07;-0.02;1.25;-18.99;6.64;-473.59;1.92;-0.14;154.23
-0.08;0.04;1.09;-19.79;3.00;-458.35;1.38;0.02;141.39
-0.11;0.04;1.17;-18.40;3.54;-446.76;0.91;0.21;129.78
-0.03;0.04;1.19;-17.02;2.99;-441.23;0.47;0.32;117.42
0.02;0.02;1.07;-18.82;9.31;-468.30;-0.10;0.57;102.91
-0.02;0.07;1.14;-18.98;13.81;-497.89;-0.51;0.93;89.96
-0.09;0.04;1.20;-14.81;38.54;-497.89;-0.87;2.06;76.02
-0.14;0.21;1.28;-15.37;5.43;-486.35;-1.08;2.26;63.37
0.03;0.00;1.18;-12.93;-21.61;-460.35;-1.41;1.59;50.48
0.02;-0.01;0.95;-14.61;-3.13;-367.02;-1.78;1.45;40.58
-0.11;0.06;1.22;-11.85;-1.85;-306.00;-1.99;1.48;32.62
-0.02;0.07;1.20;-8.56;1.38;-226.93;-2.13;1.50;26.27
0.07;0.08;1.13;-5.91;0.25;-133.89;-2.16;1.42;22.65
0.07;0.06;1.15;-2.29;1.77;-62.88;-2.12;1.37;20.95
0.05;0.04;1.14;-0.63;1.09;-7.49;-2.06;1.33;20.65
0.02;-0.01;1.14;-0.14;-0.31;-0.15;-2.03;1.27;20.65
0.02;-0.02;1.15;-0.08;0.39;0.09;-2.01;1.24;20.65
0.03;-0.02;1.15;-0.03;1.64;0.06;-2.00;1.23;20.65
0.02;-0.02;1.14;-0.40;2.96;-0.27;-1.98;1.26;20.64
0.04;-0.03;1.14;-1.59;1.22;-40.94;-2.01;1.23;19.58
0.02;-0.04;1.13;-3.50;0.24;-68.26;-2.11;1.19;17.67
0.04;-0.05;1.14;-4.34;0.22;-97.55;-2.23;1.14;15.04
0.02;-0.10;1.14;-5.62;-0.62;-131.37;-2.43;1.08;11.49
-0.02;-0.18;1.18;-9.79;2.62;-203.28;-2.82;1.14;6.00
-0.05;-0.22;1.19;-10.76;-1.68;-290.29;-3.29;1.11;-3.00
-0.10;-0.18;1.15;-15.54;-0.11;-389.10;-3.80;1.17;-13.51
0.22;-0.03;1.16;-14.98;-3.94;-462.30;-4.16;0.83;-26.45
0.10;-0.02;1.15;-20.99;4.62;-497.89;-4.65;0.84;-39.89
0.36;-0.16;1.05;-23.24;13.31;-497.89;-5.30;0.84;-53.34
0.10;-0.05;1.08;-19.66;1.64;-497.89;-5.79;0.77;-67.28
-0.08;-0.03;1.18;-12.67;18.61;-480.35;-6.02;1.30;-79.77
0.07;-0.07;1.15;-17.01;-3.90;-402.50;-6.43;1.10;-91.04
0.09;-0.10;1.05;-9.63;15.80;-446.59;-6.65;1.41;-103.09
-0.16;-0.02;1.16;-20.82;-3.07;-497.89;-7.15;1.45;-118.03
0.07;-0.25;1.13;-22.24;-10.54;-471.65;-7.83;1.09;-130.76
-0.09;-0.06;1.17;-15.89;-7.61;-340.18;-8.16;0.94;-140.29
-0.05;0.04;1.12;-12.18;0.35;-253.42;-8.28;0.98;-147.13
-0.14;0.01;1.15;-10.15;8.48;-265.97;-8.38;1.32;-154.31
0.01;-0.02;1.06;-11.10;-2.10;-254.59;-8.53;1.23;-161.44
0.05;0.02;1.11;-7.62;5.67;-197.57;-8.54;1.30;-166.78
-0.01;-0.02;1.17;-5.63;-4.36;-145.22;-8.54;1.17;-170.70
-0.02;-0.03;1.13;-4.66;-2.40;-113.31;-8.53;1.10;-173.87
-0.07;0.04;1.12;-3.57;-3.85;-84.44;-8.42;1.04;-176.40
-0.02;-0.00;1.15;-1.14;2.80;-55.14;-8.29;1.11;-177.95
-0.05;-0.01;1.13;-1.13;2.50;-38.70;-8.16;1.21;-178.99
-0.02;-0.02;1.16;-0.35;0.27;-15.37;-8.03;1.21;-179.76
0.02;-0.02;1.15;-0.43;-0.28;-9.23;-7.90;1.16;-180.02
0.02;-0.02;1.15;0.44;0.76;-5.98;-7.76;1.14;-180.18
0.03;-0.02;1.15;-0.24;-0.49;-1.54;-7.62;1.07;-180.22
0.03;-0.03;1.15;-0.11;-0.66;-0.53;-7.51;1.01;-180.24
0.03;-0.02;1.14;-0.21;-0.51;-0.73;-7.38;0.95;-180.26
0.02;-0.03;1.14;-0.08;-0.43;-1.46;-7.27;0.89;-180.30
0.02;-0.03;1.14;0.34;0.80;-3.77;-7.15;0.87;-180.40
0.03;-0.02;1.14;0.26;0.84;-2.68;-7.02;0.84;-180.47
0.03;-0.03;1.14;0.20;0.33;0.06;-6.90;0.81;-180.47
0.01;-0.02;1.15;0.09;-0.08;3.06;-6.78;0.78;-180.39
0.02;-0.03;1.15;0.40;-0.25;10.66;-6.66;0.74;-180.11
0.03;-0.02;1.14;0.38;-0.17;12.32;-6.54;0.68;-179.76
0.01;-0.01;1.15;0.76;1.05;15.19;-6.40;0.69;-179.37
0.00;-0.02;1.15;1.73;1.67;29.16;-6.24;0.71;-178.55
0.01;0.01;1.15;2.82;3.58;26.45;-6.04;0.78;-177.86
0.00;-0.04;1.14;1.71;3.35;21.15;-5.91;0.87;-177.21
0.03;-0.03;1.13;0.75;-0.69;33.59;-5.80;0.80;-176.26
-0.04;-0.05;1.16;4.24;3.00;93.48;-5.62;0.90;-173.83
-0.02;0.00;1.15;4.67;2.96;104.32;-5.38;0.98;-171.02
-0.03;0.00;1.15;6.63;3.26;144.29;-5.09;1.08;-166.98
-0.08;0.06;1.15;8.46;6.04;199.25;-4.72;1.29;-161.80
-0.17;0.18;1.20;10.18;2.87;317.47;-4.20;1.48;-152.91
-0.01;0.06;1.17;8.98;-7.16;401.36;-3.81;1.26;-141.67
0.03;0.12;1.19;13.22;-6.92;444.60;-3.29;1.03;-130.11
-0.07;0.09;1.16;17.27;-8.57;485.73;-2.67;0.84;-116.51
-0.34;-0.03;1.19;19.33;0.93;502.64;-2.05;1.16;-100.93
0.19;-0.39;1.14;17.45;0.07;502.64;-1.88;1.00;-87.36
-0.12;-0.05;1.22;18.46;-5.12;502.64;-1.39;0.95;-73.78
-0.01;-0.17;1.14;18.40;-5.04;502.64;-1.03;0.81;-59.71
-0.05;-0.13;1.18;19.25;-13.10;502.64;-0.64;0.50;-46.64
-0.15;-0.07;1.14;19.33;7.71;438.26;-0.18;0.84;-34.81
-0.19;-0.00;1.15;12.08;-3.18;388.89;0.14;0.92;-24.31
0.12;-0.20;1.15;11.42;-3.90;348.75;0.26;0.70;-14.89
-0.04;-0.07;1.13;12.00;-4.43;308.61;0.51;0.60;-6.25
0.08;-0.18;1.12;7.76;1.74;213.76;0.56;0.57;0.16
0.10;-0.07;1.06;3.39;-5.56;150.58;0.57;0.31;4.23
0.17;-0.14;1.14;1.42;-3.49;83.30;0.47;0.07;6.48
0.11;-0.17;1.10;0.89;0.30;30.98;0.33;-0.02;7.28
-0.05;-0.14;1.14;-2.24;-5.49;-2.27;0.13;-0.12;7.22
0.03;-0.02;1.16;-0.73;-1.76;0.05;0.09;-0.20;7.22
0.03;-0.03;1.15;-0.58;-1.47;-1.01;0.04;-0.26;7.20
0.07;-0.09;1.15;-1.04;-0.72;-19.28;-0.07;-0.34;6.66
-0.01;0.03;1.16;-1.19;-0.14;-25.20;-0.07;-0.33;5.97
-0.02;0.04;1.15;0.00;-0.02;-10.43;-0.03;-0.30;5.69
0.03;-0.02;1.14;0.60;1.34;-0.10;-0.02;-0.27;5.69
0.14;-0.19;1.17;-1.37;1.46;-52.49;-0.22;-0.35;4.27
0.07;-0.05;1.13;-4.60;3.16;-126.36;-0.39;-0.33;0.99
-0.03;0.01;1.14;-5.11;1.74;-141.59;-0.51;-0.24;-2.98
-0.12;0.13;1.14;-2.64;2.61;-72.93;-0.46;-0.06;-4.95
0.02;-0.02;1.15;-0.50;-1.81;0.03;-0.48;-0.12;-4.95
0.03;-0.03;1.15;-0.14;-0.11;-0.29;-0.50;-0.15;-4.95
0.03;-0.02;1.15;0.21;-0.08;-0.38;-0.51;-0.18;-4.96
0.03;-0.02;1.14;-0.12;-0.45;-0.23;-0.52;-0.21;-4.97
0.03;-0.02;1.16;0.24;-0.05;0.28;-0.52;-0.23;-4.96
0.03;-0.02;1.14;-0.12;0.06;0.15;-0.53;-0.26;-4.96
0.03;-0.02;1.15;0.56;0.59;0.40;-0.53;-0.26;-4.95
0.01;-0.04;1.23;-2.11;-17.29;-0.32;-0.66;-1.13;-4.96
-0.03;0.06;1.35;-0.76;-127.65;-3.01;-0.62;-4.71;-5.05
0.01;0.01;1.44;4.52;-243.20;17.86;-0.48;-11.30;-4.55
0.10;0.03;1.27;11.74;-411.55;43.50;-0.14;-21.65;-3.42
0.19;-0.13;0.96;25.28;-367.68;150.75;0.40;-31.14;0.65
0.36;-0.07;0.89;36.00;-217.20;124.96;1.32;-36.89;4.15
0.34;0.04;1.40;33.65;-302.52;87.06;2.18;-44.13;6.41
0.39;-0.11;1.04;31.85;-422.75;76.22;2.89;-54.80;8.47
0.36;0.11;0.98;28.82;-370.28;51.74;3.78;-64.96;10.02
0.64;-0.11;0.94;-4.58;-408.98;11.51;3.50;-75.11;10.33
0.63;0.02;0.99;-11.85;-498.34;22.57;3.13;-87.43;10.94
0.89;-0.04;0.07;-3.82;-350.25;15.35;2.93;-96.26;11.34
0.77;-0.08;0.63;13.15;-80.86;12.63;3.15;-97.42;11.68
0.94;-0.09;0.70;29.02;-160.37;16.02;3.79;-100.72;12.12
0.84;-0.05;0.56;3.51;-87.35;2.05;3.76;-102.08;12.17
0.86;-0.04;0.55;-0.89;-76.02;1.91;3.64;-103.18;12.22
0.93;-0.05;0.91;11.83;-163.10;-15.94;3.85;-106.31;11.79
0.80;0.01;0.45;8.63;-217.00;-26.85;4.03;-111.77;10.99
0.84;0.01;0.44;9.22;-169.38;4.46;4.22;-115.41;11.11
1.02;-0.03;0.47;11.24;-132.86;2.75;4.41;-117.90;11.19
0.88;0.02;0.27;4.96;-109.30;-11.26;4.46;-119.77;10.89
0.87;-0.02;0.34;-10.64;-1.68;13.30;4.07;-118.76;11.25
1.01;-0.11;0.47;10.27;52.74;7.77;4.18;-116.19;11.46
0.93;-0.08;0.39;5.98;84.51;-1.13;4.18;-112.89;11.43
0.89;-0.02;0.60;7.08;113.35;-0.97;4.27;-108.73;11.41
0.92;-0.01;0.55;-8.11;72.85;-13.25;3.97;-105.87;11.06
0.92;0.04;0.45;-27.82;94.32;-9.07;3.10;-102.21;10.79
0.97;-0.05;0.62;-23.94;55.54;-10.82;2.35;-99.75;10.49
0.93;-0.04;0.58;-12.92;64.84;-16.62;1.94;-97.23;10.05
1.01;-0.04;0.64;-8.49;64.01;-7.04;1.64;-94.66;9.86
1.03;-0.07;0.62;5.68;91.63;-17.51;1.71;-91.46;9.38
0.82;0.07;0.65;14.43;189.05;-20.94;2.10;-85.79;8.84
0.79;-0.00;0.77;0.61;153.93;27.15;2.08;-80.77;9.60
0.90;-0.05;0.75;-0.24;196.13;14.84;2.00;-74.93;10.00
0.85;-0.03;0.60;-16.37;255.57;-42.09;1.51;-67.99;8.91
0.85;0.02;0.89;-33.80;282.06;-3.28;0.57;-59.76;8.81
0.76;-0.03;0.81;-49.14;344.10;70.98;-0.91;-49.29;10.94
0.63;-0.09;0.97;-25.37;275.55;66.19;-1.63;-41.62;12.73
0.47;-0.05;0.87;-16.60;264.10;16.03;-2.07;-34.35;13.16
0.43;-0.06;0.88;-52.20;300.96;0.61;-3.46;-26.19;13.18
0.54;-0.12;1.11;-26.35;237.02;16.70;-4.17;-19.87;13.63
0.41;-0.07;0.90;13.97;185.16;28.34;-3.77;-14.85;14.42
0.30;-0.04;0.96;57.11;129.51;10.95;-2.27;-11.58;14.71
0.34;-0.03;0.96;33.25;75.92;-38.17;-1.37;-9.72;13.68
0.41;-0.04;1.16;5.92;86.01;-10.62;-1.22;-7.63;13.39
0.27;-0.05;1.04;39.34;38.35;-8.62;-0.09;-6.62;13.13
0.30;-0.04;1.01;13.56;41.26;-16.33;0.24;-5.71;12.69
0.34;-0.06;1.15;-20.31;50.84;2.69;-0.35;-4.57;12.76
0.37;-0.03;1.12;-43.40;52.90;19.51;-1.51;-3.43;13.29
0.21;-0.08;1.16;-51.50;14.39;18.37;-2.91;-3.18;13.79
0.28;-0.10;1.08;-64.32;-30.22;5.28;-4.58;-4.15;13.92
0.31;-0.09;0.96;-43.22;-7.12;6.69;-5.67;-4.58;14.10
0.24;-0.14;1.00;-19.89;48.44;15.99;-6.21;-3.45;14.53
0.24;-0.12;1.05;-2.17;9.03;-3.37;-6.25;-3.37;14.44
0.28;-0.12;1.09;9.30;-40.69;-22.96;-5.98;-4.64;13.82
0.31;-0.10;0.98;20.32;-43.68;-21.59;-5.33;-6.20;13.15
0.35;-0.08;1.00;46.38;-9.84;-1.95;-4.11;-6.69;13.10
0.27;-0.08;1.12;72.66;-36.51;-5.95;-2.17;-7.77;12.94
0.37;-0.02;1.14;6.26;-80.48;-4.79;-1.82;-12.15;12.68
0.39;-0.04;0.98;28.09;-71.49;1.50;-1.05;-14.29;12.73
0.30;-0.04;1.18;33.36;-46.33;-14.94;-0.17;-15.50;12.32
0.28;-0.13;1.14;7.27;-10.87;-9.28;-0.08;-15.72;12.07
0.38;0.01;1.18;-7.56;-29.91;-7.88;-0.27;-16.55;11.86
0.48;-0.06;1.00;0.02;-89.20;8.69;-0.31;-19.06;12.09
0.41;0.01;1.16;1.68;-91.91;-32.15;-0.24;-22.67;10.81
0.52;-0.03;1.09;-41.54;-47.73;-29.97;-1.39;-24.03;9.97
0.50;-0.02;1.03;-70.66;0.90;-34.64;-3.25;-24.03;9.03
0.46;-0.03;1.14;-66.93;-52.55;12.66;-4.98;-25.37;9.38
0.44;-0.10;1.09;-95.69;-87.65;-0.06;-7.49;-27.58;9.37
0.31;-0.03;1.04;-92.58;-103.38;-11.22;-9.91;-30.19;9.06
0.55;-0.15;1.03;-103.44;-182.16;12.99;-12.55;-34.91;9.41
0.48;-0.07;0.80;-130.47;-99.06;-2.62;-15.82;-37.41;9.34
0.59;-0.17;0.77;-126.56;-107.20;12.45;-19.12;-40.25;9.69
0.78;-0.35;0.91;-107.80;-49.94;-54.36;-22.14;-41.55;8.06
0.33;-0.13;1.05;-66.27;12.97;-57.34;-23.63;-40.67;6.45
0.62;-0.25;1.14;22.58;-0.29;-40.70;-22.70;-40.35;5.31
0.50;-0.14;0.93;76.61;-13.82;-64.33;-20.40;-40.39;3.64
0.39;-0.05;0.85;55.50;54.32;-22.55;-18.52;-38.56;3.01
0.60;-0.15;1.04;30.14;8.38;-4.47;-17.48;-38.11;2.89
0.53;-0.10;0.97;21.01;-17.41;-3.37;-16.63;-38.36;2.80
0.48;-0.09;1.02;27.48;-0.10;24.52;-15.64;-38.06;3.46
0.65;-0.15;0.95;30.43;11.51;33.18;-14.66;-37.62;4.32
0.71;-0.18;0.95;31.08;8.04;17.68;-13.64;-37.29;4.82
0.44;-0.12;1.01;19.39;36.25;15.76;-12.89;-35.91;5.29
0.58;-0.17;1.10;31.98;59.74;33.22;-11.93;-34.16;6.15
0.67;-0.17;1.06;44.26;0.18;-6.43;-10.59;-34.04;5.97
0.42;-0.10;1.00;49.69;-8.75;-16.07;-9.14;-34.01;5.54
0.51;-0.12;1.01;26.40;-66.92;7.76;-8.35;-35.59;5.75
0.72;-0.15;0.88;9.34;-131.79;-29.80;-8.04;-39.07;4.95
0.50;-0.09;0.99;-9.95;-98.04;-17.81;-8.22;-41.47;4.45
0.74;-0.14;0.99;-3.79;-112.89;-16.01;-8.25;-44.18;4.03
0.68;-0.11;0.85;-23.02;-109.50;-40.17;-8.79;-47.01;2.91
0.69;-0.11;0.92;-62.67;-104.84;-18.15;-10.60;-49.94;2.34
0.77;-0.13;0.97;-62.11;-122.95;-25.02;-12.12;-52.89;1.67
0.78;-0.13;0.93;-40.21;-53.90;-27.57;-13.06;-54.04;0.90
0.67;-0.10;1.00;13.94;14.71;-33.74;-12.51;-53.22;0.02
0.64;-0.06;0.96;80.92;40.68;0.51;-10.09;-51.67;0.03
0.80;-0.06;0.64;101.76;39.69;-19.54;-7.25;-50.56;-0.49
0.64;0.01;0.54;46.11;131.17;-15.77;-5.87;-47.05;-0.92
0.48;0.04;0.64;27.80;295.40;6.80;-4.98;-39.00;-0.74
0.77;-0.12;0.89;25.85;271.52;9.68;-4.27;-31.78;-0.48
0.36;-0.01;0.89;-23.16;338.96;-28.29;-4.88;-21.62;-1.32
0.08;0.04;0.92;-13.42;379.98;22.98;-5.11;-10.86;-0.68
0.30;-0.15;1.22;-77.22;368.68;63.83;-7.17;-1.14;1.04
0.26;-0.15;1.07;-63.10;341.19;28.96;-8.82;7.67;1.82
0.10;-0.10;0.96;-28.99;452.67;31.10;-9.52;19.39;2.66
0.03;-0.16;1.04;-89.36;421.40;38.15;-11.95;30.53;3.73
-0.15;-0.12;1.11;-85.76;413.22;7.03;-14.01;40.58;3.92
-0.36;-0.13;1.09;-28.35;460.35;86.55;-14.58;52.28;6.25
-0.36;-0.18;1.35;-14.46;499.28;104.58;-14.79;64.71;9.08
-0.14;-0.22;1.18;84.06;390.10;114.46;-12.46;73.85;12.17
-0.37;-0.13;1.05;77.63;479.00;16.52;-6.61;107.93;13.41
-0.82;-0.03;0.86;58.08;295.29;-40.23;-4.91;114.73;12.28
-1.02;-0.05;0.87;25.51;382.33;-20.41;-4.16;123.51;11.73
-0.87;-0.03;0.81;35.53;472.48;-19.30;-3.16;134.47;11.21
-0.94;0.02;0.71;50.76;314.21;43.13;-0.64;147.91;13.32
-0.42;-0.11;0.64;28.38;80.12;27.67;0.06;147.81;14.12
-0.89;0.05;0.56;27.86;98.61;-45.83;0.84;148.57;12.89
-1.15;0.08;0.42;62.72;86.35;-2.55;2.60;149.30;12.81
-0.93;-0.02;0.50;24.41;50.35;23.44;3.18;148.86;13.45
-1.08;0.03;0.45;27.76;27.98;-8.32;3.95;148.03;13.20
-1.00;-0.03;0.42;24.44;82.38;15.33;4.52;148.65;13.63
-0.91;-0.02;0.46;-15.56;41.96;-3.74;3.99;148.02;13.53
-0.98;0.02;0.45;14.86;5.66;6.31;4.31;146.50;13.69
-0.89;-0.05;0.57;-0.95;-75.91;5.30;4.16;142.59;13.84
-1.07;-0.05;0.54;-0.08;-151.59;-32.85;4.03;137.09;12.98
-1.19;-0.01;0.62;21.68;-180.77;-8.26;4.54;130.63;12.75
-0.89;-0.05;0.83;-33.76;-336.49;-45.39;3.52;120.02;11.53
-1.27;0.07;0.67;-70.76;-456.33;-80.17;1.69;107.19;9.44
-1.13;-0.03;0.96;-62.12;-446.71;85.99;-0.25;92.45;12.11
-0.37;-0.18;1.13;48.72;-405.94;-1.14;0.96;79.78;12.08
-0.76;-0.07;0.91;103.83;-501.26;-111.40;3.64;65.68;9.07
-0.91;0.01;0.76;44.31;-472.04;-36.09;4.74;52.86;8.09
-0.49;-0.03;0.88;30.11;-348.74;16.06;5.45;42.80;8.54
-0.41;-0.05;1.06;17.18;-312.28;18.41;5.73;34.40;9.02
-0.17;-0.11;0.89;1.37;-381.75;-21.31;5.54;23.80;8.45
-0.32;-0.03;0.78;-33.22;-286.22;-51.89;4.49;15.91;6.99
-0.27;-0.01;1.03;25.85;-38.66;9.27;5.05;14.90;7.24
-0.19;-0.02;1.02;84.86;-15.87;12.54;7.25;14.37;7.59
-0.10;-0.01;0.94;35.24;-56.58;-18.70;8.48;11.99;6.84
-0.29;0.04;1.04;-35.85;-130.66;-18.07;7.40;8.59;6.35
-0.32;0.06;1.06;-50.29;-99.75;5.88;5.97;6.09;6.51
-0.13;-0.00;1.06;-30.26;-32.81;23.77;5.05;5.24;7.15
0.03;-0.05;1.14;-3.53;-13.06;-5.42;4.81;4.76;7.00
-0.12;-0.02;1.12;8.73;-15.78;-24.53;4.92;4.37;6.34
-0.24;0.01;1.02;-14.84;-3.58;3.94;4.43;4.45;6.45
0.00;-0.05;1.18;-22.09;35.57;16.98;3.72;5.27;6.89
-0.02;-0.06;1.24;-8.14;-1.70;-12.04;3.38;5.14;6.57
-0.24;-0.01;1.16;-2.20;-67.12;-13.74;3.24;3.22;6.14
-0.09;-0.04;1.18;-21.21;-17.50;14.00;2.60;2.80;6.51
0.13;-0.11;1.24;-28.64;3.71;-7.14;1.67;2.74;6.31
-0.15;-0.04;1.29;-12.21;-52.33;-35.28;1.28;1.43;5.35
-0.26;0.01;1.25;16.32;-117.68;-10.26;1.69;-1.48;5.08
-0.10;-0.02;1.13;28.81;-110.16;16.74;2.40;-4.26;5.53
-0.00;-0.04;1.07;15.88;-35.29;17.51;2.73;-5.11;6.00
-0.09;0.00;1.19;11.30;-72.68;8.37;2.97;-6.85;6.23
-0.13;0.02;1.09;17.59;-147.97;20.74;3.40;-10.49;6.79
0.18;-0.06;1.07;6.75;-116.00;23.59;3.46;-13.54;7.43
0.14;-0.03;1.13;-18.73;-107.49;-26.38;2.80;-16.67;6.61
0.01;0.00;1.22;-50.17;-175.33;-21.85;1.42;-20.98;6.02
0.21;-0.06;1.35;-43.68;-138.65;12.38;0.19;-24.40;6.35
0.38;-0.14;1.46;-19.28;-218.58;-35.19;-0.42;-29.96;5.40
0.05;-0.01;1.31;-11.27;-363.50;-67.34;-0.71;-39.03;3.58
0.08;0.02;1.13;-64.63;-419.84;-17.16;-2.39;-49.44;3.12
0.53;-0.08;1.07;-66.23;-250.54;34.83;-4.21;-55.81;4.10
0.65;-0.16;1.18;2.78;-236.55;-9.72;-4.15;-61.48;3.83
0.41;-0.08;1.00;12.60;-343.58;-31.85;-3.80;-69.76;2.97
0.40;-0.04;0.73;-25.62;-339.84;27.24;-4.54;-79.23;3.82
0.84;-0.14;0.82;-61.94;-258.08;17.24;-6.25;-85.55;4.30
0.69;-0.07;0.90;-55.77;-326.87;-16.03;-7.60;-92.87;3.88
0.63;-0.09;0.84;-45.19;-334.40;6.14;-8.71;-100.55;4.05
0.85;-0.13;0.75;-41.47;-304.19;5.47;-9.73;-107.47;4.20
0.90;-0.17;0.78;-3.37;-268.37;-19.13;-9.74;-113.29;3.68
0.70;-0.11;0.62;4.31;-326.14;-3.23;-9.43;-127.24;3.53
0.99;-0.18;0.55;45.85;-246.74;0.51;-8.07;-132.78;3.54
0.80;-0.06;0.44;63.92;-331.01;-37.13;-6.22;-140.37;2.50
0.81;-0.04;0.20;52.15;-244.25;13.96;-4.61;-146.21;2.92
0.97;-0.07;0.16;52.20;-240.34;6.72;-3.21;-151.17;3.10
1.00;-0.10;0.08;38.09;-203.67;-2.88;-2.24;-155.14;3.02
0.90;-0.07;0.12;20.73;-194.49;-10.33;-1.72;-158.75;2.74
1.00;-0.07;0.09;-2.26;-170.48;4.89;-1.83;-161.69;2.88
0.96;-0.10;0.18;8.14;-152.02;-13.97;-1.67;-163.95;2.50
0.94;-0.09;0.07;19.02;-163.76;-13.68;-1.24;-166.61;2.13
0.97;-0.07;-0.03;13.31;-153.59;-25.69;-0.94;-169.10;1.44
0.93;-0.06;-0.08;18.09;-111.50;-27.94;-0.52;-170.49;0.68
0.87;-0.03;-0.13;17.82;-69.18;-32.61;-0.07;-170.91;-0.23
0.89;-0.01;-0.16;10.15;-45.09;-13.10;0.23;-170.86;-0.64
0.91;-0.02;-0.16;19.37;-45.78;3.54;0.70;-170.63;-0.54
1.05;-0.13;-0.10;18.66;-39.03;11.41;1.03;-170.02;-0.23
1.05;-0.10;-0.17;8.72;11.26;-19.16;1.10;-168.19;-0.75
0.85;-0.01;-0.16;-0.14;10.48;-13.45;1.06;-166.55;-1.11
0.92;-0.09;-0.06;11.71;23.16;16.67;1.23;-164.37;-0.66
1.08;-0.11;-0.17;17.71;75.37;-4.81;1.53;-160.95;-0.79
0.91;-0.05;-0.19;34.21;186.73;-25.23;2.33;-154.77;-1.48
0.93;-0.06;-0.13;28.12;247.25;-23.54;2.94;-147.02;-2.11
0.72;0.05;-0.10;5.59;244.79;-14.01;3.14;-138.52;-2.55
0.70;0.08;-0.08;12.55;316.42;54.17;3.55;-129.50;-1.14
1.04;-0.21;0.15;-17.37;441.66;93.76;2.80;-116.20;1.49
1.28;-0.23;0.28;-31.74;420.01;-38.04;1.70;-103.72;0.42
0.59;-0.01;0.41;6.89;436.06;-39.30;1.83;-91.63;-0.60
0.76;-0.14;0.61;-11.28;416.32;12.75;1.37;-79.29;-0.24
1.06;-0.16;0.60;-14.85;339.54;-62.26;0.85;-70.14;-1.86
0.57;-0.05;0.58;40.18;450.74;-73.92;1.85;-57.65;-3.86
0.60;-0.08;0.57;11.82;499.28;-65.26;2.06;-43.65;-5.68
0.18;0.06;0.82;9.95;499.28;-62.78;2.38;-28.33;-7.57
0.20;-0.03;0.99;-72.58;499.28;12.93;0.39;-14.78;-7.22
0.50;-0.09;1.09;-55.47;499.28;-19.17;-1.15;-1.73;-7.74
0.28;-0.04;1.00;27.48;499.28;-46.44;-0.44;11.21;-8.99
-0.12;0.02;0.86;-15.21;499.28;-56.65;-0.81;24.36;-10.52
-0.25;0.00;1.15;-60.78;499.28;-4.65;-2.39;37.33;-10.64
-0.26;-0.03;1.25;-81.36;450.09;17.01;-4.53;48.72;-10.19
-0.36;-0.06;1.36;-23.71;447.57;30.41;-5.12;60.31;-9.33
-0.41;-0.08;1.43;15.42;337.81;26.35;-4.66;68.35;-8.62
-0.33;-0.13;1.40;-17.82;-34.71;-32.21;-5.37;65.83;-9.94
-0.47;-0.13;1.36;-32.23;-92.26;-23.04;-6.19;62.42;-10.56
-0.47;-0.08;1.49;-21.50;-107.79;-2.90;-6.69;58.65;-10.64
-0.26;-0.11;1.45;-0.38;-151.47;11.25;-6.64;53.81;-10.35
-0.08;-0.15;1.24;1.66;-218.77;-27.19;-6.59;46.80;-11.11
-0.28;-0.05;1.12;0.41;-154.75;-12.38;-6.49;41.89;-11.46
-0.12;-0.09;1.10;0.47;-59.44;26.34;-6.43;39.65;-10.77
0.04;-0.13;1.15;-2.43;-64.71;-5.28;-6.49;37.11;-10.92
-0.24;-0.03;1.02;2.49;-41.75;-24.46;-6.32;35.48;-11.60
-0.20;-0.03;0.98;-0.82;35.00;13.74;-6.25;36.02;-11.19
-0.07;-0.08;1.05;-9.11;59.11;1.73;-6.46;37.00;-11.14
-0.21;-0.05;1.03;1.47;85.25;-13.51;-6.34;38.74;-11.50
-0.24;-0.05;0.95;2.66;143.06;4.69;-6.19;42.02;-11.38
-0.23;-0.06;1.06;6.41;204.07;6.66;-5.94;47.01;-11.19
-0.34;-0.06;1.01;24.06;284.04;20.84;-5.23;53.94;-10.63
-0.60;-0.03;1.06;54.32;499.28;71.86;-3.71;66.64;-8.69
-0.46;-0.07;1.08;69.74;499.28;66.98;-1.77;79.45;-6.81
-0.71;0.01;1.07;78.46;472.88;15.86;0.35;91.04;-6.38
-0.87;0.01;0.60;87.53;499.28;27.28;4.47;113.80;-5.08
-0.61;-0.10;0.56;55.73;499.28;-7.42;6.03;128.03;-5.31
-0.91;0.10;0.56;71.07;499.28;-61.71;7.86;139.76;-6.98
-1.21;0.14;0.41;37.36;349.42;-68.24;8.79;147.52;-8.82
-1.16;0.11;0.34;31.77;225.51;4.02;9.54;151.92;-8.71
-0.95;0.01;0.43;-3.45;193.57;5.16;9.27;155.31;-8.57
-0.96;0.02;0.49;-28.79;122.45;-9.71;8.31;156.80;-8.85
-0.95;-0.06;0.42;-30.58;79.28;-7.81;7.28;157.02;-9.06
-1.06;-0.04;0.51;5.22;67.32;11.67;7.24;156.92;-8.74
-0.94;-0.05;0.40;63.71;38.99;-11.89;8.81;156.13;-9.07
-1.08;-0.04;0.15;71.89;63.54;-24.56;10.71;156.48;-9.81
-1.03;-0.01;0.19;35.66;56.68;-7.17;11.46;156.49;-10.01
-0.99;0.01;0.03;29.97;36.96;-34.82;12.04;156.09;-10.95
-1.10;0.01;-0.01;-3.21;99.13;-49.26;11.72;157.39;-12.28
-1.05;0.03;0.14;-45.54;37.11;-42.49;10.27;156.87;-13.47
-1.09;0.03;0.07;-69.13;36.33;-74.21;8.33;156.36;-15.40
-1.22;0.06;0.17;-91.13;29.42;-18.53;5.80;155.60;-15.90
-0.91;-0.05;0.15;-87.71;-11.56;3.28;3.23;153.72;-15.81
-1.02;-0.03;0.18;-52.84;-17.18;-25.88;1.74;151.76;-16.51
-1.08;-0.06;0.25;-37.11;-29.04;11.19;0.53;149.32;-16.16
-0.99;-0.02;0.21;-1.79;-49.33;17.16;0.45;146.52;-15.68
-1.19;-0.02;0.28;27.65;-107.90;-0.68;1.13;142.35;-15.70
-1.41;-0.04;0.45;21.40;-227.75;22.83;1.67;134.67;-15.06
-1.36;-0.03;0.45;23.47;-373.91;51.04;2.26;123.13;-13.63
-1.07;-0.06;0.45;30.84;-463.65;59.71;2.98;109.69;-12.02
-1.06;-0.03;0.56;-17.63;-501.26;-13.17;2.43;95.45;-12.37
-1.16;-0.07;0.67;-48.47;-501.26;-10.04;1.01;80.94;-12.66
-0.93;-0.08;0.82;-58.84;-501.26;20.43;-0.62;66.97;-12.10
-0.52;-0.07;0.83;-44.69;-501.26;-30.07;-2.03;51.01;-13.04
-0.69;0.00;0.91;-20.82;-501.26;-79.94;-2.56;36.97;-15.27
-0.81;0.02;0.87;6.89;-501.26;-27.36;-2.31;23.82;-16.01
-0.31;-0.12;0.71;0.02;-453.94;29.67;-2.40;11.30;-15.18
-0.08;-0.11;0.88;-30.23;-433.96;-27.10;-3.30;-0.74;-15.94
-0.25;-0.08;0.99;-21.62;-457.84;-74.00;-3.86;-12.13;-17.86
-0.20;-0.02;0.93;14.02;-382.28;-61.28;-3.44;-21.77;-19.52
-0.01;-0.04;0.73;49.68;-311.47;-75.02;-2.12;-29.56;-21.54
-0.09;0.02;0.67;43.10;-44.97;-24.12;-0.86;-30.05;-22.22
-0.02;0.03;0.82;-4.05;47.69;10.17;-0.93;-27.98;-21.90
0.18;0.01;0.95;-40.87;1.37;7.38;-1.94;-27.60;-21.71
0.12;0.03;1.03;-46.76;31.74;-4.64;-3.16;-26.30;-21.84
-0.04;0.00;1.08;-38.29;57.58;18.84;-4.10;-24.21;-21.33
0.01;-0.13;1.18;-56.21;53.98;35.42;-5.63;-22.30;-20.38
0.14;-0.13;1.29;-47.30;44.48;37.35;-6.92;-20.74;-19.33
0.10;-0.19;1.33;-17.94;58.39;17.85;-7.40;-18.85;-18.85
0.06;-0.19;1.31;7.48;31.42;28.26;-7.22;-17.72;-18.12
-0.00;-0.15;1.28;24.27;5.28;23.36;-6.54;-17.22;-17.46
0.05;-0.11;1.28;41.13;-21.88;30.12;-5.26;-17.58;-16.53
0.10;-0.13;1.13;38.08;-27.59;21.59;-4.27;-18.05;-15.94
0.10;-0.10;1.20;10.06;-27.49;8.31;-4.01;-18.51;-15.72
0.06;-0.07;1.20;9.13;-60.26;-9.80;-3.74;-19.84;-15.99
0.02;-0.09;1.15;-6.96;-70.29;-10.39;-3.94;-21.32;-16.28
0.01;-0.08;1.14;-12.98;8.91;13.83;-4.29;-20.67;-15.90
0.13;-0.08;1.18;-0.79;27.35;9.47;-4.29;-19.62;-15.64
0.08;-0.12;1.15;-7.13;-7.38;-29.86;-4.51;-19.50;-16.44
-0.10;-0.04;1.13;-8.53;-6.74;-16.90;-4.68;-19.19;-16.90
0.13;-0.09;1.14;-16.93;-11.18;8.83;-5.35;-19.38;-16.54
0.07;-0.07;1.14;-22.11;-31.36;-21.20;-5.90;-19.89;-17.11
-0.02;-0.07;1.11;-23.88;-14.11;-0.14;-6.48;-19.85;-17.11
0.04;-0.10;1.12;-9.97;-11.68;0.69;-6.94;-20.06;-17.08
0.04;-0.08;1.07;-9.33;7.60;14.00;-7.14;-19.49;-16.67
0.11;-0.11;1.12;-17.65;26.80;4.31;-7.57;-18.49;-16.56
0.04;-0.10;1.12;-23.22;18.48;1.74;-8.13;-17.67;-16.51
-0.00;-0.10;1.18;-20.32;13.06;12.40;-8.60;-16.97;-16.17
-0.01;-0.06;1.23;-6.69;-14.98;28.90;-8.66;-17.00;-15.42
-0.09;0.03;1.20;20.82;1.38;89.24;-7.83;-16.53;-12.66
-0.26;0.10;1.18;39.40;23.25;181.36;-6.51;-15.33;-7.58
-0.14;-0.00;1.05;44.67;88.90;317.73;-5.21;-12.53;1.00
0.61;-0.24;1.18;-2.66;129.95;333.94;-5.33;-9.30;10.02
0.31;0.05;1.32;22.03;51.19;199.30;-4.58;-7.96;15.60
-0.86;0.20;1.31;96.12;-21.21;274.45;-1.93;-7.75;22.73
-0.61;-0.32;0.92;88.43;153.67;502.64;0.21;-3.01;36.30
0.63;-0.26;1.15;-10.64;240.39;502.64;-0.25;3.17;50.38
-0.14;0.12;1.36;-1.63;-53.90;308.58;-0.20;1.84;58.40
-0.86;0.10;1.18;7.60;-120.13;360.26;0.06;-0.70;68.13
-0.23;-0.13;1.18;11.76;108.71;502.64;0.31;2.81;83.71
0.45;-0.06;1.20;16.18;52.06;472.08;0.69;3.74;96.46
0.07;0.19;0.90;11.56;-37.90;349.06;1.21;2.59;105.88
0.03;0.12;0.92;-50.79;14.88;348.32;-0.07;2.91;115.63
-0.02;0.14;1.01;-143.79;-21.20;277.50;-3.72;2.31;123.13
-0.18;0.13;0.93;-112.55;-41.97;278.87;-6.49;1.35;130.66
0.08;-0.19;0.98;-141.97;-8.68;256.92;-10.46;1.00;137.85
-0.15;-0.08;1.20;-126.09;-93.24;194.86;-13.65;-1.35;143.11
-0.36;-0.10;1.19;-51.22;-7.90;202.89;-14.86;-1.23;148.79
-0.15;-0.22;1.14;-39.25;12.21;233.15;-15.95;-0.70;156.02
0.03;-0.14;1.23;-12.43;41.05;186.19;-16.09;0.37;161.05
-0.10;-0.04;1.13;51.57;33.86;99.70;-14.39;1.39;163.84
-0.20;-0.20;1.11;-2.73;25.64;62.98;-14.35;2.18;165.47
-0.31;-0.06;1.17;-8.75;14.19;43.90;-14.35;2.81;166.70
-0.24;-0.17;1.16;22.06;29.71;49.24;-13.59;3.78;168.08
-0.12;-0.22;1.24;-4.52;-61.09;-14.44;-13.62;2.24;167.71
-0.25;-0.08;1.17;10.20;-89.03;-81.08;-13.13;-0.02;165.44
-0.22;-0.14;1.06;28.03;-38.20;-62.46;-12.23;-0.86;163.69
-0.22;-0.42;1.35;-43.27;-81.88;-116.29;-13.55;-3.11;160.20
-0.21;-0.44;1.09;-54.02;-86.81;-187.04;-15.14;-5.27;154.96
-0.07;-0.40;1.09;-26.00;84.06;-168.14;-15.93;-2.80;150.25
-0.18;-0.35;1.33;-6.76;81.98;-219.22;-16.05;-0.45;144.34
-0.29;-0.30;1.18;19.83;64.38;-219.85;-15.44;1.48;138.40
-0.03;-0.28;1.19;30.69;106.19;-196.47;-14.58;4.28;133.10
-0.11;-0.04;1.34;45.01;-55.65;-322.64;-13.13;2.82;124.38
-0.43;-0.01;1.03;15.63;-79.10;-341.78;-12.44;1.04;114.81
-0.20;-0.07;1.11;-21.71;22.48;-274.49;-12.85;1.83;107.13
-0.23;0.05;1.16;50.09;-72.91;-337.39;-11.08;-0.14;97.01
-0.14;-0.15;0.88;-7.02;-72.92;-297.25;-11.22;-1.98;88.68
0.04;-0.25;1.18;-92.99;-15.42;-295.98;-13.69;-2.39;80.69
-0.26;0.00;1.40;33.80;-23.52;-308.97;-12.55;-2.73;72.66
0.05;0.02;1.03;85.42;2.42;-233.89;-9.94;-2.67;66.11
0.35;-0.12;1.00;21.94;-26.33;-285.66;-9.26;-3.66;58.40
0.03;0.03;1.06;-1.62;-38.33;-289.43;-9.08;-4.63;50.58
0.04;-0.06;1.03;-39.68;-41.55;-265.65;-10.06;-5.71;43.14
0.11;0.00;1.05;-17.44;98.24;-225.10;-10.31;-3.12;37.07
0.23;-0.02;1.31;16.52;86.93;-243.23;-9.62;-0.61;29.53
-0.20;0.14;1.06;65.36;-67.13;-261.45;-7.51;-2.25;22.21
-0.09;0.06;0.88;22.14;5.28;-165.08;-6.72;-1.96;17.91
0.09;0.03;0.96;-71.10;78.91;-165.11;-8.43;0.06;13.46
-0.20;0.02;1.31;-87.39;4.54;-144.09;-10.65;0.36;9.42
-0.13;0.04;1.36;-47.24;-16.86;-81.57;-11.61;0.03;7.30
-0.06;0.07;1.25;2.23;-15.16;-43.10;-11.25;-0.34;6.09
0.12;-0.10;1.18;1.69;40.94;8.48;-11.03;1.53;6.51
0.01;-0.07;1.26;-7.92;18.62;-19.31;-11.08;1.98;5.99
-0.22;-0.02;1.21;9.25;5.80;17.47;-10.61;2.31;6.51
-0.01;-0.10;1.15;24.26;52.70;82.40;-9.85;3.67;8.74
0.27;-0.11;1.14;17.60;25.51;48.05;-9.28;4.03;10.03
0.09;-0.08;1.08;12.09;-15.24;-6.20;-8.85;3.45;9.87
-0.06;-0.11;1.11;-4.63;-27.91;-8.33;-8.90;2.71;9.64
-0.06;-0.11;1.13;-8.15;-0.19;19.73;-9.05;2.70;10.19
-0.04;-0.08;1.13;8.64;26.77;42.92;-8.73;3.37;11.31
0.22;-0.23;1.55;39.04;37.00;13.79;-7.64;4.18;11.70
0.02;-0.13;1.22;95.31;-60.20;-56.64;-5.08;2.48;10.17
-0.02;-0.07;1.09;67.63;-46.63;-38.90;-3.26;1.22;9.12
-0.01;-0.05;1.10;58.21;-48.37;-28.23;-0.97;-0.69;7.99
0.03;0.01;1.07;43.91;-51.68;-25.40;0.22;-2.07;7.30
0.12;-0.06;1.01;42.61;-3.47;-56.50;1.28;-2.25;5.78
0.13;-0.11;0.87;15.18;119.40;-100.73;1.54;0.80;3.06
-0.10;0.19;1.13;-62.53;7.61;-35.72;-0.03;1.08;2.06
0.03;0.06;1.34;-22.93;-76.52;-2.00;-0.57;-0.91;2.00
-0.02;-0.06;1.26;17.04;-113.94;17.24;-0.16;-3.89;2.47
0.08;-0.11;1.08;30.96;-55.13;-13.95;0.58;-5.40;2.08
0.05;0.11;1.03;20.24;-13.85;13.06;1.20;-5.69;2.42
0.12;-0.08;1.09;-18.46;1.96;43.85;0.59;-5.64;3.65
0.06;0.05;1.22;-19.11;1.71;-10.76;0.04;-5.52;3.31
0.07;0.02;1.14;18.86;18.35;-47.20;0.54;-5.02;2.09
0.09;0.08;1.03;-11.27;71.89;-31.14;0.31;-3.11;1.24
-0.07;0.06;1.31;-15.66;33.26;-33.05;-0.07;-2.11;0.35
-0.00;0.04;1.21;45.11;-27.99;17.33;1.12;-2.78;0.80
0.11;0.03;1.06;59.40;-15.61;9.91;2.76;-3.27;1.08
0.05;0.01;1.14;43.39;5.43;-21.83;3.82;-3.12;0.51
0.03;0.05;1.14;43.07;8.79;-10.10;4.97;-2.85;0.23
0.06;0.00;1.11;43.27;-8.95;-3.26;6.02;-3.09;0.14
0.04;0.03;1.01;19.13;-2.86;-6.87;6.44;-3.15;-0.04
0.08;0.03;0.85;-99.50;216.87;10.32;3.33;3.40;0.28
-0.03;-0.05;1.11;-145.34;371.69;-20.58;-0.64;13.19;-0.28
-0.22;0.03;1.61;-98.58;198.21;-9.34;-3.22;18.32;-0.53
-0.09;-0.18;1.27;-21.66;-89.71;48.14;-3.90;15.56;0.82
-0.22;-0.05;1.20;-50.99;-162.54;17.77;-5.21;11.15;1.30
-0.07;0.02;1.23;18.53;-148.42;68.69;-4.62;7.21;3.08
0.02;-0.03;1.07;41.11;-100.63;18.63;-3.42;4.28;3.60
0.08;-0.08;1.06;12.63;-22.68;-1.97;-3.10;3.52;3.55
0.06;-0.03;1.05;-17.76;-52.89;-17.26;-3.52;2.05;3.10
0.06;-0.06;0.95;-71.54;-23.32;-18.55;-5.70;1.23;2.53
-0.01;-0.09;1.14;-111.07;-26.36;-5.57;-8.72;0.49;2.37
0.02;-0.09;1.24;-101.34;-5.88;19.35;-11.21;0.31;2.87
0.07;-0.10;1.29;-52.85;-7.93;-7.33;-12.47;0.04;2.68
-0.02;-0.08;1.25;10.35;-85.75;-85.98;-12.02;-2.22;0.35
-0.06;-0.07;1.16;38.12;-41.90;-30.90;-10.83;-3.22;-0.48
0.09;-0.11;1.13;51.53;-57.35;-30.52;-9.35;-4.76;-1.30
0.09;-0.06;1.03;46.73;-41.07;-41.63;-7.98;-5.84;-2.43
0.07;-0.06;1.06;17.10;-11.41;-48.67;-7.42;-6.11;-3.79
-0.02;-0.03;1.11;-4.78;2.41;-28.82;-7.42;-5.91;-4.57
0.07;-0.05;1.19;-0.15;21.96;-0.18;-7.32;-5.21;-4.57
0.09;-0.05;1.14;4.76;2.88;-6.78;-7.09;-5.11;-4.76
0.16;-0.10;1.09;-15.01;17.31;-9.20;-7.43;-4.70;-5.01
0.12;-0.08;1.16;-15.37;-3.12;-15.01;-7.75;-4.80;-5.40
0.05;-0.08;1.17;-7.18;12.12;-4.21;-7.87;-4.42;-5.52
0.24;-0.13;1.19;4.79;18.58;-19.65;-7.69;-4.04;-6.05
0.30;-0.17;1.12;-2.46;6.41;-65.10;-7.73;-4.06;-7.74
0.27;-0.28;1.20;-46.78;-26.39;-153.94;-10.18;-5.53;-15.75
0.67;-0.48;1.27;-61.62;13.03;-289.10;-11.94;-5.48;-23.84
-0.11;-0.22;0.93;0.53;21.37;-308.94;-11.90;-3.82;-45.16
0.18;-0.31;0.99;-56.46;-24.42;-410.59;-13.46;-4.55;-56.25
-0.27;-0.10;0.97;-103.80;-19.58;-422.76;-16.13;-4.72;-68.08
-0.20;-0.00;1.11;-67.79;34.74;-317.10;-17.67;-3.46;-76.96
0.22;-0.27;1.08;-47.57;117.64;-305.72;-18.80;-0.47;-85.22
0.27;-0.44;1.19;-27.13;80.42;-381.07;-19.51;1.56;-95.89
-0.07;-0.05;1.47;-26.96;-13.26;-473.83;-19.87;1.23;-108.68
-0.42;0.20;1.04;25.92;-60.20;-348.70;-18.65;0.05;-117.75
-0.26;0.15;0.96;2.03;49.37;-188.90;-18.09;1.62;-122.85
0.03;-0.07;1.17;-18.69;-14.43;-134.29;-18.36;1.12;-127.01
0.25;-0.24;1.23;-48.63;-56.95;-166.00;-19.41;-0.54;-131.33
0.40;-0.14;1.16;-32.92;-38.66;-199.25;-20.03;-1.93;-136.90
0.28;-0.04;1.10;-21.94;51.19;-238.55;-20.27;-0.76;-143.58
-0.10;0.08;1.25;-62.50;3.64;-209.80;-21.45;-0.57;-149.25
-0.22;0.02;1.28;-80.49;-141.70;-167.49;-23.21;-4.25;-153.94
-0.03;-0.02;1.49;-36.47;-61.36;-95.31;-23.69;-5.71;-156.42
0.13;-0.11;1.21;43.56;14.21;-93.66;-22.16;-5.33;-158.95
0.02;-0.06;1.12;43.80;104.79;-81.28;-20.57;-2.37;-161.22
0.03;-0.04;1.21;19.74;29.72;-78.33;-19.61;-1.47;-163.57
-0.09;0.05;1.20;7.76;-31.78;-24.99;-18.98;-2.17;-164.22
0.19;0.00;1.15;45.69;-34.19;-10.04;-17.34;-3.25;-164.50
0.13;0.02;1.03;57.42;26.96;-11.31;-15.45;-2.61;-164.81
0.17;-0.00;1.11;34.08;49.22;-23.28;-14.25;-1.43;-165.44
-0.06;0.10;1.13;24.86;18.88;-12.56;-13.18;-0.83;-165.79
0.03;0.02;1.08;1.05;-7.85;23.76;-12.87;-1.04;-165.15
0.11;0.02;1.18;-9.39;-4.25;18.52;-12.84;-1.25;-164.65
0.14;-0.01;1.21;7.40;16.12;40.54;-12.39;-0.92;-163.55
0.08;-0.01;1.21;19.15;1.90;8.67;-11.38;-0.90;-163.20
-0.16;0.10;1.16;26.00;16.71;50.86;-10.40;-0.31;-161.87
0.06;-0.02;1.10;23.31;56.85;90.45;-9.57;1.20;-159.34
0.23;-0.00;1.15;5.94;28.64;63.15;-9.22;1.74;-157.57
0.07;0.04;1.08;-5.76;21.64;69.96;-9.15;2.18;-155.75
-0.00;0.14;1.11;7.86;45.02;91.70;-8.60;3.38;-153.19
-0.30;0.32;1.12;20.70;-3.93;146.09;-7.63;3.44;-149.24
-0.58;0.33;1.02;7.85;-0.29;310.35;-7.03;3.83;-140.86
-0.48;0.03;1.11;33.13;-59.64;502.64;-5.96;2.57;-126.79
1.12;-0.58;1.18;101.77;-101.42;433.82;-3.13;-1.11;-113.77
0.22;-0.01;0.99;105.19;-144.45;178.02;-0.19;-5.30;-108.79
-0.40;0.14;0.91;48.63;54.12;352.03;1.27;-3.29;-98.93
0.76;-0.42;1.06;10.11;128.19;403.94;1.24;-0.51;-88.43
0.39;-0.24;1.22;-51.57;10.56;183.44;-0.32;-0.52;-83.48
-0.36;0.02;1.28;-75.14;-72.20;194.93;-2.36;-2.18;-78.02
-0.21;-0.04;1.36;5.19;10.30;318.75;-2.20;-1.69;-69.41
0.36;-0.34;1.27;101.01;90.39;370.61;0.28;0.48;-59.41
0.44;-0.12;1.05;102.24;15.81;183.36;2.88;0.48;-54.46
-0.37;0.14;0.87;24.24;19.32;190.86;3.67;1.45;-48.73
-0.28;-0.06;1.21;-39.82;81.37;342.69;2.46;3.90;-39.13
0.40;-0.18;1.38;3.30;31.66;267.79;2.38;4.38;-31.90
0.18;-0.01;1.09;99.76;21.13;170.55;4.86;4.65;-27.47
0.02;0.04;0.98;71.01;32.22;156.57;6.77;5.42;-23.09
0.27;-0.05;1.07;4.87;10.00;112.81;6.71;5.29;-20.15
0.09;0.01;1.14;1.37;-9.13;85.16;6.63;4.85;-17.77
-0.07;0.04;1.07;12.09;7.17;87.68;6.85;5.01;-15.40
0.15;-0.08;1.21;-45.73;-18.92;90.66;5.44;4.28;-12.95
0.29;-0.10;1.32;-23.94;-17.09;27.12;4.63;3.51;-12.22
-0.29;0.05;1.06;40.55;-12.74;44.11;6.53;3.12;-10.06
0.10;-0.01;1.14;-26.76;-12.49;87.01;5.63;2.60;-7.54
0.35;-0.06;1.15;3.57;-5.76;32.57;5.57;2.07;-6.62
0.10;-0.01;1.06;28.26;9.69;-0.36;6.16;2.17;-6.63
0.15;-0.03;1.02;10.44;31.80;22.08;6.29;2.81;-6.04
0.27;-0.09;1.20;-36.52;-1.64;-14.76;5.16;2.47;-6.42
0.04;-0.04;1.17;-21.66;9.71;-32.23;4.45;2.64;-7.29
-0.12;0.01;1.20;-1.88;42.06;-4.56;4.31;3.85;-7.42
0.04;-0.01;1.16;10.12;26.70;19.42;4.47;4.41;-6.91
0.10;-0.03;1.12;4.18;3.84;0.74;4.47;4.33;-6.89
-0.03;-0.00;1.08;-7.54;27.60;-1.80;4.15;5.11;-6.95
0.02;-0.02;1.14;-14.82;-7.61;8.74;3.67;4.80;-6.72
0.07;-0.06;1.18;-7.66;-7.50;-1.94;3.34;4.43;-6.78
0.07;-0.03;1.16;18.43;17.52;-5.48;3.73;4.74;-6.93
0.06;-0.02;1.01;17.22;29.64;-9.88;4.09;5.36;-7.19
0.04;-0.01;1.03;-14.35;25.80;-5.69;3.61;5.90;-7.35
0.07;-0.00;1.11;-19.60;20.15;-10.56;3.00;6.26;-7.64
0.02;0.00;1.14;-7.07;28.13;-15.81;2.76;6.83;-8.05
-0.07;-0.01;1.17;-9.24;51.84;-3.48;2.45;8.14;-8.15
0.04;-0.02;1.11;-12.69;34.90;2.31;2.05;8.86;-8.08
0.12;-0.06;1.18;-35.36;15.72;-20.36;0.88;9.05;-8.72
0.05;-0.08;1.29;-46.35;-43.23;-46.03;-0.43;7.68;-9.96
0.01;-0.03;1.44;-34.00;-125.84;-38.47;-1.35;4.19;-11.00
0.03;-0.06;1.62;-3.33;-311.50;-25.42;-1.46;-4.46;-11.71
-0.03;-0.01;1.53;9.82;-441.06;-30.65;-1.18;-16.01;-12.54
0.23;-0.08;1.73;-6.40;-477.61;-8.17;-1.36;-28.01;-12.75
0.42;-0.00;1.41;21.40;-400.77;-25.45;-0.75;-38.77;-13.46
0.24;0.20;1.17;15.08;-245.29;-41.14;-0.16;-44.92;-14.61
0.34;-0.01;0.98;-105.69;-364.28;-48.70;-2.96;-54.04;-15.93
0.20;-0.14;0.98;-277.85;-501.26;-19.66;-11.48;-68.39;-16.54
0.83;-0.27;0.57;-224.52;-501.26;26.63;-17.63;-81.66;-15.79
1.10;-0.36;0.51;-192.90;-501.26;-67.46;-22.63;-94.32;-17.61
0.44;-0.16;0.57;-115.44;-501.26;-106.32;-25.53;-106.82;-20.59
0.84;-0.15;0.59;12.47;-374.74;-64.70;-24.80;-115.94;-22.40
0.75;-0.07;0.18;70.06;-347.90;-92.36;-22.53;-124.26;-24.90
0.53;0.03;0.10;40.93;-334.42;-56.84;-20.93;-132.14;-26.43
0.68;0.04;0.12;16.32;-245.70;4.63;-20.03;-137.53;-26.31
1.05;-0.12;0.11;-1.94;-314.68;-16.67;-19.80;-144.67;-26.76
0.79;-0.03;-0.00;22.47;-113.76;-10.10;-18.76;-146.99;-27.07
0.93;-0.04;0.02;29.95;-170.98;-6.93;-17.64;-150.30;-27.26
1.15;-0.11;-0.16;21.27;-136.20;-21.55;-16.87;-152.62;-27.82
0.84;0.03;-0.13;38.06;-5.65;-20.56;-15.44;-151.66;-28.39
0.92;-0.03;-0.13;68.38;-16.86;7.93;-13.37;-150.99;-28.18
1.03;-0.12;-0.31;48.76;14.50;-1.59;-11.95;-149.58;-28.22
0.94;-0.03;-0.31;-9.85;58.53;-27.98;-12.03;-147.12;-29.01
0.78;0.06;-0.12;-13.68;99.81;-7.66;-12.05;-143.42;-29.21
1.27;-0.14;-0.20;8.12;151.87;3.57;-11.64;-136.46;-29.07
1.17;-0.10;-0.11;21.10;242.88;-28.75;-10.94;-128.87;-29.87
0.78;0.10;-0.08;80.64;403.06;13.70;-8.34;-117.00;-29.49
0.61;0.01;-0.04;107.33;499.28;125.01;-5.31;-103.30;-26.12
1.38;-0.36;0.22;-13.98;493.16;34.78;-5.84;-89.04;-25.14
0.40;0.02;0.54;-17.21;499.28;-6.58;-6.17;-74.28;-25.33
-0.04;0.12;0.59;53.40;499.28;152.87;-4.47;-60.00;-21.35
1.38;-0.55;0.99;-59.19;378.80;91.57;-6.26;-49.25;-18.79
0.58;-0.17;1.06;-10.18;391.25;-46.58;-6.54;-38.03;-20.09
-0.14;0.13;0.78;111.05;499.28;76.72;-2.98;-22.42;-17.79
0.77;-0.33;1.11;-8.00;297.34;57.62;-3.34;-14.38;-16.18
0.45;-0.22;1.20;3.53;176.30;-54.84;-3.33;-9.60;-17.71
0.12;-0.09;1.09;34.76;179.80;-32.64;-2.46;-4.95;-18.56
0.54;-0.24;1.20;-30.34;59.40;-31.85;-4.09;-2.29;-20.18
0.21;-0.11;1.28;-5.51;21.90;-38.55;-4.24;-1.81;-21.26
0.17;-0.09;1.26;-4.93;10.87;25.33;-4.36;-1.64;-20.58
0.57;-0.23;1.26;12.08;14.16;41.35;-4.10;-1.65;-19.46
0.69;-0.25;1.19;23.24;-30.94;-34.73;-3.53;-2.98;-20.44
0.23;-0.07;1.10;-0.60;-48.84;-23.48;-3.54;-4.63;-21.16
0.31;-0.10;0.99;-10.61;-21.32;22.84;-3.84;-5.41;-20.55
0.48;-0.14;1.09;5.24;6.00;10.40;-3.73;-5.57;-20.27
0.34;-0.11;1.06;21.27;15.83;-4.68;-3.16;-5.36;-20.40
0.27;-0.07;0.94;17.56;40.67;10.06;-2.69;-4.48;-20.13
0.30;-0.11;0.92;-2.27;79.90;20.28;-2.80;-2.60;-19.58
0.35;-0.14;0.97;-6.09;167.23;9.85;-3.03;1.69;-19.30
0.22;-0.13;1.12;9.24;142.70;9.47;-2.85;5.09;-19.06
0.24;-0.14;1.03;25.48;170.13;20.38;-2.24;9.25;-18.51
0.26;-0.13;0.94;33.39;301.19;11.86;-1.44;16.77;-18.19
0.10;-0.12;0.96;22.82;499.28;24.20;-0.85;31.49;-17.44
-0.07;-0.04;1.11;47.66;499.28;46.00;0.44;44.63;-16.15
-0.32;-0.08;1.23;54.15;499.28;57.32;1.75;56.74;-14.66
-0.27;-0.14;1.11;64.79;499.28;33.50;3.38;69.55;-13.72
-0.34;-0.24;0.74;100.72;499.28;-50.09;5.82;82.24;-15.12
-0.81;-0.14;0.76;97.65;499.28;-66.17;8.09;94.15;-16.84
-1.10;0.12;0.99;69.37;499.28;-91.13;9.83;106.38;-19.30
-1.16;-0.07;0.78;-11.76;264.56;-75.22;9.27;112.58;-21.41
-1.07;-0.18;0.71;-62.79;215.77;-44.50;7.30;117.04;-22.61
-1.22;-0.08;0.76;-13.54;319.48;3.28;6.70;125.51;-22.51
-1.02;-0.04;0.51;74.60;346.35;64.80;8.58;133.74;-20.69
-0.70;-0.16;0.31;77.95;384.93;26.11;10.29;142.37;-19.99
-1.16;-0.15;0.46;81.95;347.95;-59.62;12.15;149.97;-21.60
-1.01;-0.04;0.31;63.59;331.28;7.79;13.55;157.15;-21.39
-0.77;-0.12;-0.01;38.87;289.26;22.99;14.13;163.30;-20.77
-1.15;-0.05;0.15;-11.95;241.63;-5.20;13.48;168.27;-20.91
-1.13;0.01;0.07;-63.62;124.68;27.86;11.47;170.04;-20.13
-0.94;-0.02;0.07;-42.84;83.66;55.97;10.08;170.54;-18.62
-0.92;-0.05;0.07;9.30;-23.90;21.76;10.10;168.05;-17.95
-0.99;-0.09;0.14;-18.63;-35.09;44.02;9.30;165.26;-16.71
-0.88;-0.03;0.22;-59.80;-84.23;78.45;7.49;161.21;-14.60
-0.79;0.08;0.30;-36.29;-112.34;52.08;6.43;156.19;-13.14
-1.09;-0.02;0.49;50.08;-258.81;-31.85;7.56;147.77;-13.97
-1.62;-0.02;0.48;126.50;-421.82;-48.29;10.74;135.11;-15.27
-1.60;0.08;0.34;141.95;-491.38;5.10;14.47;120.42;-15.13
-1.36;0.01;0.34;37.08;-501.26;33.33;15.17;106.26;-14.23
-1.09;-0.03;0.60;-89.89;-501.26;53.18;12.38;91.58;-12.74
-0.89;-0.01;0.74;-109.59;-501.26;13.70;8.69;75.02;-12.30
-0.47;-0.15;0.63;-80.56;-501.26;28.72;6.31;61.38;-11.55
-0.22;-0.13;0.98;-34.43;-501.26;-48.24;5.11;46.62;-12.90
-0.52;-0.09;1.02;10.20;-501.26;-145.71;5.22;32.44;-16.98
-0.65;0.00;1.01;18.75;-501.26;-119.31;5.61;19.18;-20.21
-0.32;-0.02;0.88;92.53;-403.52;-21.34;8.02;8.11;-20.80
-0.25;0.09;0.68;107.36;-225.27;-2.18;10.81;2.36;-20.86
-0.28;0.15;0.63;45.47;-138.57;48.92;11.98;-0.95;-19.54
0.33;0.01;0.58;-53.60;-122.42;49.16;10.28;-4.88;-18.16
0.20;0.06;0.86;-128.70;-16.89;-28.53;6.23;-5.53;-19.05
-0.06;0.07;1.19;-132.38;35.72;19.56;2.66;-4.42;-18.52
0.10;-0.04;1.38;-76.40;59.69;45.22;0.49;-2.78;-17.25
0.11;-0.08;1.33;-29.76;-3.91;23.35;-0.37;-2.92;-16.62
-0.03;-0.06;1.23;-50.06;2.88;37.79;-1.75;-2.75;-15.60
-0.17;-0.06;1.35;-66.40;59.90;96.37;-3.57;-0.91;-12.91
-0.06;-0.06;1.43;-24.73;46.13;163.09;-4.18;0.33;-8.67
-0.19;0.06;1.19;30.23;37.63;271.21;-2.63;2.27;4.35
-0.19;0.01;1.07;43.37;121.26;368.48;-1.38;5.75;14.67
0.18;-0.11;1.31;-49.04;-20.28;330.61;-3.36;4.69;27.89
-0.13;-0.03;1.15;61.86;10.21;286.17;-1.68;4.99;35.62
-0.35;0.02;1.08;5.07;44.12;373.16;-1.49;6.46;46.07
0.21;-0.16;1.15;-46.79;21.14;324.99;-2.79;6.69;54.52
-0.25;0.01;1.41;19.83;-7.81;298.84;-2.20;6.55;62.59
-0.56;0.02;1.29;64.61;45.02;409.41;-0.44;8.07;73.64
0.08;-0.07;1.12;47.92;-53.88;453.32;0.78;6.40;85.88
0.27;-0.00;1.06;-36.60;-162.52;336.54;-0.21;1.69;94.97
-0.13;0.05;1.12;-23.10;-131.26;245.51;-0.77;-1.69;101.60
-0.76;0.18;0.99;39.15;-13.64;361.50;0.44;-1.37;111.72
0.19;-0.19;0.70;-63.82;-74.10;454.67;-1.75;-3.84;125.81
0.24;-0.21;0.94;-140.12;-3.97;298.25;-5.63;-4.10;133.87
-0.05;-0.16;1.19;-108.06;-26.94;235.51;-8.52;-4.69;140.23
-0.12;-0.18;1.28;-104.64;-63.99;204.49;-11.26;-6.19;145.75
-0.22;-0.15;1.27;-37.68;-23.53;180.31;-12.15;-6.52;150.61
-0.17;-0.17;1.15;26.96;28.67;161.28;-11.32;-5.45;155.13
-0.14;-0.10;1.07;35.65;98.27;101.47;-10.21;-2.51;157.97
-0.15;-0.13;0.98;10.64;-4.49;97.13;-9.85;-2.42;160.59
-0.09;-0.21;1.06;-47.66;-2.89;120.58;-11.12;-2.37;163.85
0.11;-0.35;1.19;-64.26;-20.00;62.26;-13.15;-3.02;165.78
-0.09;-0.27;1.22;-21.69;-2.45;8.89;-13.70;-2.95;166.02
-0.13;-0.23;1.20;-7.14;24.00;18.77;-13.81;-2.16;166.53
-0.03;-0.22;1.15;-10.47;15.35;0.38;-14.03;-1.67;166.54
-0.23;-0.15;1.21;-2.75;-30.72;-24.09;-13.94;-2.26;165.89
-0.24;-0.16;1.19;6.09;22.24;24.15;-13.62;-1.40;166.56
-0.01;-0.21;1.13;3.39;14.91;37.06;-13.47;-0.98;167.56
0.05;-0.17;1.13;-1.54;-1.90;1.56;-13.40;-1.05;167.61
-0.04;-0.14;1.10;23.25;1.67;-13.81;-12.63;-0.95;167.22
-0.04;-0.11;1.10;16.92;-6.36;-7.36;-11.99;-1.08;167.00
0.00;-0.10;1.12;9.66;-4.81;-5.30;-11.59;-1.19;166.85
-0.05;-0.10;1.16;4.75;-10.65;-15.42;-11.32;-1.42;166.42
-0.16;-0.07;1.14;-2.99;-11.82;-3.31;-11.23;-1.54;166.33
-0.10;-0.13;1.16;-16.67;17.23;17.10;-11.56;-0.97;166.79
0.06;-0.20;1.16;-12.61;36.18;7.56;-11.85;-0.01;167.01
0.01;-0.16;1.16;-6.79;20.00;-9.31;-11.96;0.51;166.75
-0.10;-0.16;1.15;-4.53;25.00;-16.49;-11.99;1.27;166.29
-0.07;-0.16;1.13;1.74;20.18;-7.11;-11.85;1.84;166.10
-0.06;-0.15;1.18;-8.20;-6.02;-8.14;-12.00;1.68;165.86
-0.07;-0.14;1.19;7.77;-12.11;-9.72;-11.68;1.39;165.59
-0.08;-0.12;1.14;20.46;-2.14;-9.69;-10.99;1.37;165.32
-0.09;-0.11;1.08;11.86;-9.93;0.99;-10.57;1.17;165.35
-0.08;-0.11;1.12;-3.34;2.76;8.81;-10.55;1.29;165.59
-0.06;-0.14;1.17;-16.66;-2.04;11.01;-10.92;1.26;165.90
-0.09;-0.14;1.26;-9.57;-50.33;15.67;-11.08;-0.03;166.32
-0.14;-0.13;1.28;4.29;-107.82;13.32;-10.84;-2.87;166.69
-0.08;-0.14;1.39;2.99;-149.90;45.67;-10.66;-6.57;167.88
-0.04;-0.13;1.48;16.20;-239.42;37.07;-10.05;-13.68;169.03
-0.16;-0.05;1.49;42.90;-341.64;40.77;-8.70;-22.66;170.17
0.11;-0.08;1.33;59.56;-333.47;85.54;-7.07;-30.79;172.39
0.37;-0.10;1.19;81.47;-343.32;87.71;-4.93;-39.24;174.67
0.49;-0.12;1.12;76.34;-419.33;49.15;-2.82;-50.40;176.05
0.34;-0.05;1.12;26.86;-443.61;47.86;-2.09;-61.45;177.34
0.42;-0.01;1.00;8.46;-424.91;77.59;-1.82;-72.33;179.52
0.48;-0.07;0.92;12.64;-422.58;90.89;-1.51;-82.58;181.97
1.04;-0.14;0.43;79.11;-278.77;243.56;0.42;-89.26;188.30
0.52;-0.13;0.47;-117.16;-241.64;125.61;-3.40;-95.87;192.32
1.09;-0.42;1.18;-152.12;-220.31;109.44;-11.00;-105.43;197.79
0.98;-0.45;0.90;7.89;-294.08;-35.78;-10.82;-112.40;196.76
0.55;-0.18;0.62;93.62;-274.39;-82.00;-8.21;-118.37;194.46
0.44;-0.11;0.31;112.58;-206.19;-25.95;-5.24;-122.38;193.76
0.85;-0.21;0.12;57.47;-142.91;-0.15;-3.80;-125.23;193.75
0.92;-0.27;0.32;-18.11;-157.65;-34.99;-4.47;-128.20;192.77
0.88;-0.17;0.57;-25.80;-190.19;-63.42;-5.17;-131.48;191.13
0.92;-0.12;0.59;15.37;-196.31;-71.81;-4.75;-135.10;189.19
0.73;-0.06;0.57;97.88;-164.14;-94.47;-1.64;-138.52;186.16
0.79;-0.10;0.28;132.89;-178.02;-77.63;1.81;-141.75;184.07
0.89;-0.18;0.09;86.08;-201.44;-91.59;3.84;-145.71;181.60
0.73;-0.11;0.02;67.37;-190.37;-108.82;5.32;-149.25;178.77
0.60;-0.03;0.01;64.32;-94.37;-72.35;6.93;-150.58;176.74
0.92;-0.13;-0.15;83.01;-59.42;-54.15;8.88;-151.02;175.22
1.03;-0.11;-0.07;33.11;-19.87;-52.78;9.45;-150.28;173.80
1.09;-0.04;0.01;9.05;0.30;-50.62;9.46;-149.01;172.38
1.05;-0.01;0.06;22.69;26.68;-15.75;10.15;-146.70;171.75
1.13;-0.07;0.05;-5.22;55.90;1.57;9.73;-143.91;171.80
1.16;-0.12;0.23;-46.64;42.15;-12.15;8.21;-141.38;171.47
1.00;-0.02;0.34;-39.19;36.12;-18.96;6.95;-138.96;170.94
1.01;0.02;0.30;-16.11;19.38;4.49;6.38;-137.10;171.06
1.00;0.04;0.19;-1.42;37.90;4.57;6.26;-134.94;171.18
0.91;0.05;0.20;-28.49;50.85;18.00;5.41;-132.33;171.69
0.99;-0.02;0.25;-34.89;42.45;38.72;4.32;-130.01;172.77
1.08;-0.10;0.20;-24.38;25.63;20.81;3.50;-128.22;173.33
0.95;-0.06;0.22;-18.92;11.89;-2.20;2.87;-126.81;173.27
0.91;-0.02;0.20;-17.97;40.25;10.00;2.23;-124.54;173.59
0.96;-0.02;0.25;-16.15;51.14;13.30;1.75;-122.23;173.94
1.03;-0.05;0.25;-3.36;34.93;1.36;1.58;-120.30;173.98
0.99;-0.04;0.29;-10.76;30.61;-4.99;1.22;-118.52;173.84
0.97;0.00;0.30;-6.40;12.13;-4.82;1.02;-117.27;173.71
0.96;-0.01;0.27;12.93;10.35;-2.27;1.34;-116.13;173.64
1.00;-0.01;0.19;-1.73;37.51;-5.23;1.25;-114.43;173.51
0.97;-0.01;0.31;-13.86;22.24;1.16;0.84;-112.97;173.54
1.00;-0.03;0.42;2.61;-6.52;-4.82;0.87;-112.20;173.41
1.02;-0.02;0.21;-10.87;-8.48;-6.76;0.52;-111.75;173.20
1.01;-0.02;0.30;-6.76;-2.52;-7.43;0.31;-111.05;173.00
1.00;0.01;0.32;10.14;12.91;-4.70;0.58;-109.92;172.87
1.01;0.00;0.32;20.20;1.02;-1.65;1.08;-109.14;172.83
1.04;-0.02;0.23;6.72;-18.16;-16.91;1.23;-108.98;172.35
1.05;-0.02;0.25;-12.89;-25.41;-35.08;0.84;-109.01;171.37
1.01;-0.01;0.29;-7.39;-31.42;-45.05;0.62;-109.09;170.20
0.98;-0.00;0.27;-8.93;-33.46;-57.60;0.37;-109.29;168.64
1.12;-0.06;0.25;-14.21;-52.42;-77.86;-0.08;-110.03;166.46
1.22;-0.08;0.26;-48.15;-53.35;-146.85;-1.55;-110.89;162.06
0.94;0.09;0.50;-67.24;-63.12;-169.89;-3.23;-111.51;157.47
1.09;0.15;0.33;-53.34;-52.75;-177.77;-4.46;-112.00;152.67
1.45;0.06;0.15;-47.19;84.25;-269.51;-5.58;-109.17;145.39
1.06;0.11;0.30;-91.57;47.75;-353.11;-7.89;-107.06;135.51
0.77;0.33;0.37;-123.31;-52.17;-322.29;-10.79;-107.29;126.48
0.91;0.32;0.24;-94.32;-98.34;-277.59;-12.76;-108.91;118.99
0.98;0.29;0.09;-141.31;-3.39;-321.40;-16.08;-108.21;109.99
0.86;0.39;0.21;-165.08;-14.00;-350.59;-19.74;-107.52;100.52
1.10;0.31;0.27;-131.59;96.87;-382.59;-23.09;-103.67;88.66
0.83;0.28;0.22;-128.58;-51.59;-459.23;-25.85;-104.20;75.80
0.01;0.66;0.41;-145.91;5.40;-423.66;-28.04;-101.98;64.36
0.00;0.88;0.55;-71.07;14.27;-288.88;-28.28;-99.55;56.28
0.62;0.76;0.30;-96.38;-26.42;-276.39;-29.57;-98.89;48.54
0.50;0.79;0.70;-166.38;-160.54;-175.88;-36.46;-105.15;39.74
0.69;0.77;0.62;-103.22;-52.11;-249.60;-37.85;-104.95;33.00
0.37;0.81;0.72;86.55;134.90;-271.34;-34.17;-99.69;25.95
0.06;0.68;0.04;303.28;43.08;-105.80;0.84;-93.15;14.31
0.15;0.92;0.06;50.02;18.25;-126.84;6.63;-89.90;3.28
-0.44;1.11;0.08;52.49;77.35;-44.10;9.18;-85.65;2.09
-0.05;0.91;0.17;67.62;90.16;76.41;12.32;-81.50;4.15
0.37;0.85;-0.11;-26.53;-13.50;-33.60;12.81;-80.77;3.21
-0.11;1.01;0.12;-81.02;22.73;-42.17;11.96;-78.45;2.07
-0.13;1.03;0.26;-52.35;62.35;21.32;11.72;-75.11;2.64
0.23;0.85;0.22;-32.00;-33.81;5.65;11.88;-74.75;2.80
-0.07;1.00;0.20;-64.06;-40.86;-52.15;11.45;-74.27;1.39
-0.17;1.06;0.24;-9.86;59.80;7.86;12.33;-71.05;1.60
0.12;0.87;0.26;44.47;41.08;14.35;14.71;-68.54;2.03
-0.05;0.99;0.03;19.44;-14.13;-39.77;16.62;-67.47;1.00
-0.15;0.99;0.10;-2.49;-10.23;-4.36;17.75;-66.25;0.88
-0.12;1.01;0.13;-27.76;12.44;20.87;18.18;-64.48;1.44
0.09;0.90;0.20;-28.66;-33.13;-1.10;18.50;-64.16;1.41
-0.05;0.95;0.18;-11.68;-0.25;-11.28;19.35;-62.84;1.11
-0.13;1.01;0.17;1.54;29.52;5.86;20.48;-60.68;1.26
0.02;0.94;0.13;1.59;-6.33;2.32;21.74;-59.64;1.32
-0.12;1.02;0.12;-36.60;-52.54;-29.55;21.87;-59.72;0.53
-0.02;0.97;0.23;-63.21;-68.60;-14.50;21.27;-60.32;0.13
0.04;0.91;0.37;-71.01;-153.68;-100.38;20.00;-63.82;-2.98
-0.41;1.05;0.52;-91.14;-293.50;-122.93;18.07;-70.31;-6.42
-0.42;1.11;0.48;-80.11;-399.93;-39.80;16.69;-78.79;-7.45
-0.15;0.99;0.48;-124.92;-501.26;-41.05;14.08;-90.85;-8.60
-0.24;1.00;0.55;-280.63;-501.26;-28.76;7.13;-102.62;-9.41
-0.31;1.13;0.75;-198.60;-501.26;49.47;2.67;-113.64;-8.07
0.62;0.72;0.48;-25.92;-501.26;-9.85;2.60;-125.18;-8.34
0.13;0.89;0.45;37.57;-496.46;-140.06;4.68;-135.93;-12.12
-0.50;1.02;0.47;142.69;-415.33;-24.20;11.25;-149.53;-13.11
-0.13;0.84;0.24;170.29;-407.42;-0.61;16.69;-156.79;-13.13
0.05;0.79;-0.04;180.61;-337.42;-19.95;22.92;-162.66;-13.67
-0.05;0.95;-0.08;163.15;-178.98;-41.81;28.77;-164.25;-14.84
-0.03;0.99;0.09;94.76;-163.18;0.61;32.36;-165.25;-14.82
0.26;0.86;0.05;29.62;-257.53;6.58;33.93;-169.33;-14.64
0.31;0.84;0.05;73.13;-95.90;-58.24;36.45;-168.78;-16.15
0.10;0.91;0.09;117.08;-11.35;-84.27;40.37;-165.82;-18.43
-0.11;0.96;0.21;98.73;-61.87;-58.53;43.70;-164.09;-20.07
-0.11;1.01;-0.04;83.11;-89.09;-13.92;46.99;-163.29;-20.48
0.08;0.94;-0.09;68.95;-56.51;-7.20;49.76;-161.69;-20.68
-0.14;0.97;0.01;30.58;11.16;-19.33;51.22;-157.98;-21.23
-0.10;0.98;0.02;-10.75;-61.58;21.64;51.56;-156.34;-20.64
0.10;0.90;-0.00;-15.83;-78.80;30.09;51.78;-155.43;-19.83
0.14;0.90;-0.09;-4.93;-40.66;14.51;52.34;-153.64;-19.42
0.08;0.92;0.00;-17.76;-18.22;-3.92;52.53;-151.14;-19.53
0.02;0.95;0.04;-20.49;-20.26;3.13;52.64;-148.70;-19.44
0.10;0.96;-0.02;-14.03;-16.68;-1.55;52.93;-146.29;-19.48
0.05;0.96;0.09;-25.28;-28.48;-5.49;52.76;-144.26;-19.65
0.06;0.99;0.06;-30.24;-1.46;-10.01;52.56;-141.48;-19.92
0.13;0.94;0.12;-13.91;-29.03;-14.91;52.64;-139.59;-20.34
-0.01;0.98;0.15;-3.85;6.99;-18.97;53.09;-136.59;-20.85
-0.03;0.98;0.11;-2.84;-20.33;6.05;53.58;-134.37;-20.69
0.04;0.95;0.10;4.63;-12.57;7.15;54.28;-132.06;-20.48
0.04;0.98;0.05;1.36;-1.27;3.62;54.93;-129.50;-20.39
0.04;0.98;0.06;-9.97;-21.44;0.95;55.25;-127.51;-20.36
0.03;0.96;0.09;-1.05;1.80;8.37;55.78;-124.95;-20.14
0.03;0.97;0.09;-3.24;5.64;-2.30;56.16;-122.18;-20.26
0.03;0.99;0.02;3.77;7.28;-1.52;56.87;-119.57;-20.30
0.16;0.91;0.06;-4.40;4.48;-5.91;57.15;-117.25;-20.46
0.03;0.97;0.09;-8.00;30.24;-29.85;57.45;-114.14;-21.27
-0.02;0.98;0.07;2.69;20.06;-3.02;58.07;-111.30;-21.35
0.11;0.95;0.03;-10.05;10.62;-14.12;58.26;-108.90;-21.74
-0.07;0.98;0.08;-15.82;40.94;-17.57;58.31;-105.57;-22.22
-0.01;0.97;0.10;-23.83;28.13;5.86;58.21;-102.73;-22.07
0.08;0.96;0.14;-30.84;33.96;-2.38;57.74;-99.83;-22.13
0.03;0.98;0.20;-26.93;16.74;-1.30;57.40;-97.42;-22.17
0.04;0.96;0.21;-6.78;11.23;5.33;57.60;-95.24;-22.03
0.03;0.96;0.12;18.72;26.32;-1.04;58.58;-92.65;-22.06
-0.01;0.96;0.04;24.37;30.73;2.00;59.77;-90.00;-22.01
-0.03;1.00;-0.00;4.46;45.22;16.55;60.47;-86.98;-21.56
0.03;0.96;0.04;-18.89;51.34;40.67;60.46;-83.86;-20.42
0.10;0.98;0.11;-31.85;39.60;35.27;59.97;-81.24;-19.47
0.00;1.03;0.20;-9.31;36.51;62.37;60.10;-78.65;-17.79
0.06;1.04;0.17;17.16;17.23;100.26;60.90;-76.68;-15.08
0.27;0.94;0.11;30.81;40.25;116.05;61.87;-74.37;-11.95
0.26;1.01;0.20;35.36;-0.13;91.86;63.01;-73.13;-9.10
0.28;0.97;0.14;47.54;-53.24;104.83;64.39;-73.41;-6.17
0.28;1.11;-0.03;58.31;15.49;111.45;66.19;-71.82;-3.16
0.02;1.19;-0.05;59.59;96.88;140.22;68.27;-67.84;0.63
0.19;0.99;0.21;1.10;-29.38;220.19;68.29;-67.44;6.57
0.14;1.03;0.27;15.73;-57.29;233.93;68.72;-67.78;13.12
-0.15;1.15;0.07;149.11;90.58;308.48;73.02;-63.80;21.76
0.26;0.75;0.02;157.74;123.34;435.39;76.96;-59.76;33.08
0.75;0.59;-0.06;78.55;5.93;408.92;78.39;-59.49;44.53
0.46;0.76;0.07;-2.56;-37.24;412.15;77.84;-60.01;57.31
0.66;0.63;0.08;15.91;90.07;428.87;77.52;-57.28;68.89
0.49;0.55;0.13;90.96;169.86;434.90;79.29;-52.19;81.07
1.10;0.21;-0.02;47.11;-34.65;471.70;79.22;-53.70;94.27
1.15;0.31;-0.19;-1.24;-68.89;320.12;77.96;-56.06;102.60
0.50;0.42;0.00;-23.37;69.84;322.78;76.55;-54.02;111.63
0.87;0.12;0.05;-27.44;30.38;358.93;74.42;-53.69;121.68
