ACCX;ACCY;ACCZ;GYROX;GYROY;GYROZ;ANGLX;ANGLY;ANGLZ
0.02;-0.02;1.15;-0.00;0.26;-0.11;-0.02;1.88;-0.81
0.03;-0.02;1.15;-0.23;-0.07;-0.00;-0.05;1.82;-0.81
0.03;-0.02;1.14;0.05;0.07;0.12;-0.07;1.76;-0.80
0.02;-0.02;1.15;0.06;0.17;-0.00;-0.09;1.70;-0.80
0.03;-0.01;1.15;0.06;-0.09;0.09;-0.10;1.64;-0.80
0.03;-0.02;1.15;-0.02;0.45;-0.06;-0.12;1.58;-0.80
0.02;-0.03;1.15;-0.27;-0.22;0.12;-0.15;1.52;-0.80
0.02;-0.02;1.15;-0.27;-0.09;-0.06;-0.17;1.47;-0.80
0.03;-0.02;1.15;0.15;0.26;-0.09;-0.19;1.41;-0.80
0.02;-0.02;1.14;-0.02;0.13;-0.25;-0.21;1.37;-0.81
0.03;-0.03;1.14;0.15;0.91;0.07;-0.23;1.34;-0.81
0.03;-0.02;1.15;-0.37;-0.54;0.20;-0.25;1.27;-0.80
0.02;-0.03;1.16;-0.32;0.39;0.23;-0.28;1.23;-0.80
0.03;-0.02;1.14;0.09;0.00;-0.09;-0.29;1.18;-0.80
0.03;-0.02;1.15;0.35;0.05;-0.23;-0.30;1.13;-0.81
0.03;-0.03;1.14;0.11;-0.29;-0.03;-0.32;1.08;-0.81
0.03;-0.03;1.16;0.14;0.00;0.23;-0.33;1.03;-0.80
0.03;-0.02;1.15;-0.18;-0.27;-0.20;-0.35;0.98;-0.81
0.02;-0.02;1.14;-0.24;-0.06;-0.06;-0.38;0.93;-0.81
0.02;-0.02;1.15;0.03;-0.21;0.09;-0.38;0.89;-0.81
0.03;-0.03;1.14;0.03;-0.01;0.03;-0.40;0.84;-0.80
0.02;-0.02;1.15;0.15;-0.30;-0.14;-0.41;0.80;-0.81
0.03;-0.02;1.15;-0.23;0.39;0.32;-0.42;0.76;-0.80
0.03;-0.02;1.15;0.38;-0.10;0.15;-0.43;0.71;-0.80
0.03;-0.02;1.14;-0.03;-0.09;-0.25;-0.44;0.67;-0.80
0.02;-0.02;1.14;-0.00;-0.15;-0.00;-0.45;0.63;-0.80
0.03;-0.02;1.15;-0.00;0.25;0.01;-0.47;0.60;-0.80
0.03;-0.02;1.15;0.12;0.39;-0.34;-0.47;0.58;-0.82
0.03;-0.02;1.15;-0.05;-0.30;0.35;-0.49;0.53;-0.81
0.03;-0.02;1.14;-0.18;0.02;-0.17;-0.50;0.50;-0.81
0.02;-0.02;1.15;-0.02;-0.15;-0.20;-0.52;0.46;-0.82
0.02;-0.02;1.15;-0.37;0.19;-0.41;-0.54;0.43;-0.83
0.03;-0.02;1.15;-0.27;0.11;-0.35;-0.56;0.40;-0.84
0.03;-0.02;1.15;0.06;-0.15;0.15;-0.57;0.36;-0.83
0.02;-0.02;1.15;-0.09;-0.33;0.30;-0.58;0.32;-0.83
0.02;-0.02;1.14;0.03;-0.18;-0.03;-0.59;0.29;-0.83
0.03;-0.02;1.15;0.15;-0.21;-0.23;-0.59;0.25;-0.83
0.02;-0.03;1.15;-0.32;-0.09;-0.29;-0.61;0.23;-0.84
0.02;-0.02;1.15;0.20;-0.22;-0.20;-0.62;0.20;-0.85
0.03;-0.02;1.15;0.49;-0.32;0.17;-0.61;0.16;-0.84
0.02;-0.02;1.15;-0.06;0.00;-0.26;-0.62;0.13;-0.85
0.03;-0.02;1.15;-0.21;0.19;-0.14;-0.64;0.11;-0.85
0.03;-0.02;1.14;-0.12;-0.19;0.49;-0.65;0.07;-0.84
0.02;-0.02;1.15;0.11;-0.06;0.24;-0.65;0.04;-0.83
0.02;-0.03;1.15;0.31;0.26;-0.31;-0.66;0.03;-0.84
0.03;-0.02;1.14;0.23;-0.06;0.10;-0.66;-0.00;-0.84
0.02;-0.02;1.15;0.02;0.17;-0.05;-0.67;-0.02;-0.84
0.03;-0.02;1.15;0.09;0.20;-0.05;-0.67;-0.04;-0.84
0.03;-0.02;1.15;-0.14;-0.04;0.23;-0.68;-0.07;-0.84
0.02;-0.03;1.15;-0.02;0.46;0.26;-0.69;-0.07;-0.83
0.02;-0.03;1.15;-0.20;0.36;0.10;-0.72;-0.08;-0.83
0.03;-0.02;1.14;-0.08;-0.16;-0.08;-0.73;-0.12;-0.83
0.03;-0.02;1.15;-0.06;0.04;0.01;-0.74;-0.14;-0.83
0.02;-0.02;1.15;-0.00;0.34;0.07;-0.74;-0.16;-0.83
0.03;-0.02;1.15;-0.03;1.06;0.15;-0.75;-0.16;-0.82
0.03;-0.02;1.15;0.09;0.92;0.04;-0.75;-0.16;-0.82
0.03;-0.02;1.14;-0.40;-0.65;0.24;-0.77;-0.21;-0.82
0.02;-0.02;1.16;0.08;0.57;0.17;-0.77;-0.21;-0.81
0.03;-0.02;1.16;-0.37;-1.19;0.09;-0.79;-0.26;-0.81
0.02;-0.03;1.14;0.06;-0.16;0.03;-0.80;-0.28;-0.81
0.03;-0.02;1.15;-0.21;0.48;-0.02;-0.81;-0.28;-0.81
0.01;-0.03;1.15;-0.00;-0.19;0.10;-0.82;-0.30;-0.81
0.02;-0.02;1.16;0.02;-0.32;0.12;-0.82;-0.32;-0.80
0.03;-0.02;1.15;-0.31;-0.25;-0.16;-0.83;-0.35;-0.81
0.03;-0.02;1.15;-0.29;0.31;0.04;-0.85;-0.37;-0.81
0.02;-0.02;1.14;-0.12;-0.16;0.09;-0.85;-0.39;-0.80
0.03;-0.03;1.14;-0.12;-0.10;-0.17;-0.86;-0.41;-0.81
0.03;-0.02;1.15;-0.18;0.00;-0.02;-0.87;-0.43;-0.81
0.02;-0.02;1.14;0.24;0.33;0.07;-0.87;-0.44;-0.81
0.03;-0.02;1.15;0.12;-0.18;0.01;-0.87;-0.46;-0.81
0.03;-0.02;1.14;0.03;-0.16;0.39;-0.87;-0.48;-0.80
0.03;-0.02;1.15;-0.21;0.26;0.24;-0.88;-0.49;-0.79
0.03;-0.02;1.15;-0.08;-0.22;-0.48;-0.89;-0.51;-0.80
0.02;-0.02;1.15;0.05;0.16;-0.34;-0.89;-0.52;-0.81
0.03;-0.02;1.15;0.12;0.00;-0.20;-0.89;-0.54;-0.82
0.03;-0.02;1.14;0.31;0.14;0.04;-0.89;-0.55;-0.81
0.02;-0.02;1.15;0.26;-0.16;-0.16;-0.88;-0.57;-0.82
0.03;-0.02;1.15;-0.38;-0.21;0.33;-0.89;-0.59;-0.81
0.02;-0.02;1.15;-0.27;-0.30;0.10;-0.90;-0.61;-0.81
0.02;-0.02;1.14;0.03;0.23;0.24;-0.90;-0.61;-0.80
0.03;-0.02;1.15;0.46;0.55;-0.11;-0.88;-0.61;-0.81
0.00;-0.01;1.15;1.65;1.18;37.66;-0.83;-0.57;0.21
-0.02;-0.09;1.14;0.78;-0.93;15.45;-0.88;-0.56;0.63
0.03;-0.02;1.14;0.34;-0.93;4.32;-0.87;-0.60;0.74
0.04;-0.03;1.15;0.09;0.33;3.05;-0.89;-0.61;0.89
0.03;-0.02;1.15;-0.52;0.88;0.15;-0.90;-0.60;0.89
0.02;-0.02;1.15;-0.26;1.18;-0.03;-0.91;-0.57;0.89
0.03;-0.02;1.15;0.34;0.89;-0.60;-0.91;-0.57;0.87
0.03;-0.02;1.14;0.06;-0.88;-0.08;-0.91;-0.61;0.87
0.03;-0.03;1.15;-0.11;-0.13;0.12;-0.92;-0.63;0.88
0.03;-0.02;1.15;0.15;-0.38;0.26;-0.92;-0.66;0.88
0.03;-0.03;1.14;0.38;0.25;0.04;-0.92;-0.66;0.88
0.03;-0.02;1.14;0.21;-0.35;-0.38;-0.91;-0.69;0.87
0.02;-0.02;1.14;-0.00;-0.24;-0.02;-0.91;-0.70;0.87
-0.05;0.02;1.14;1.37;1.64;34.97;-0.83;-0.60;1.82
0.06;-0.02;1.15;1.42;0.08;41.51;-0.80;-0.65;2.90
0.03;-0.02;1.16;1.45;-1.20;44.53;-0.76;-0.70;4.14
0.00;-0.01;1.18;1.30;-1.38;45.23;-0.72;-0.72;5.37
0.03;0.00;1.14;1.98;0.13;70.03;-0.65;-0.74;7.19
0.03;0.02;1.15;4.78;-0.38;114.17;-0.49;-0.76;10.27
0.10;-0.07;1.14;5.10;0.04;167.05;-0.39;-0.85;15.45
0.06;-0.00;1.12;6.43;-0.45;182.70;-0.22;-0.90;20.20
0.02;0.02;1.15;7.27;-1.37;181.68;-0.01;-0.93;25.10
-0.00;0.03;1.13;7.86;-0.53;198.53;0.23;-0.93;30.46
0.04;0.10;1.15;9.11;-0.33;230.73;0.55;-0.95;36.46
0.04;0.03;1.19;10.40;-0.25;262.44;0.84;-0.98;43.55
-0.07;0.01;1.23;11.16;-4.09;257.51;1.13;-1.01;50.50
-0.05;-0.01;1.13;11.30;-6.90;279.54;1.39;-1.12;58.05
-0.14;0.07;1.37;11.94;-8.04;309.05;1.73;-1.20;66.39
-0.10;0.08;1.17;11.63;-0.10;309.00;2.08;-1.09;74.74
0.04;-0.07;1.08;12.18;-1.38;312.67;2.32;-1.15;84.12
0.13;-0.10;1.08;12.35;-0.16;295.91;2.52;-1.25;92.40
0.13;-0.04;0.95;12.11;-1.52;283.98;2.74;-1.42;99.78
0.00;0.01;1.21;10.72;-3.69;288.32;2.98;-1.49;107.57
-0.01;0.00;1.15;13.21;-2.24;308.44;3.28;-1.51;116.21
-0.18;-0.01;1.37;13.44;-12.01;318.18;3.55;-1.64;124.48
0.07;-0.01;1.05;12.02;-3.75;302.87;3.78;-1.79;132.66
-0.00;-0.02;1.03;14.26;3.41;288.50;4.06;-1.66;140.45
-0.02;-0.03;1.26;8.76;-4.97;234.38;4.18;-1.74;146.54
0.04;-0.11;1.08;9.33;-4.35;238.15;4.27;-1.88;153.92
0.02;-0.01;1.23;9.07;-4.71;241.25;4.40;-1.97;160.19
0.20;-0.04;0.96;7.88;-7.45;224.44;4.47;-2.35;166.03
-0.10;-0.04;1.23;8.23;-4.85;199.92;4.57;-2.34;171.43
-0.08;-0.00;1.08;8.44;1.12;200.64;4.69;-2.19;176.64
0.11;-0.05;1.19;6.64;-2.42;181.48;4.73;-2.31;181.54
0.09;-0.10;1.08;4.79;4.31;147.89;4.66;-2.24;185.54
0.02;-0.04;1.20;4.24;-1.86;108.55;4.63;-2.26;188.36
0.02;-0.06;1.11;2.64;2.43;57.60;4.56;-2.16;189.97
-0.01;-0.05;1.19;1.10;-0.09;42.06;4.44;-2.12;191.11
0.01;-0.04;1.14;1.04;0.42;10.20;4.35;-2.08;191.41
-0.01;-0.04;1.15;-0.27;-1.61;-0.12;4.21;-2.07;191.41
0.03;-0.03;1.15;-0.11;-0.41;0.17;4.09;-2.06;191.41
0.03;-0.03;1.15;-0.35;0.08;0.03;3.98;-2.05;191.42
0.06;-0.03;1.15;-0.47;-1.31;-6.63;3.85;-2.11;191.24
0.03;0.00;1.15;-0.95;1.35;-19.47;3.75;-2.06;190.71
0.04;-0.02;1.18;-2.98;0.42;-68.41;3.58;-2.05;188.86
0.05;-0.10;1.12;-3.83;7.53;-141.53;3.31;-1.85;184.90
0.19;-0.08;0.73;-30.79;-22.45;-258.12;2.35;-2.65;178.19
0.02;0.02;1.05;-8.46;0.29;-209.32;2.10;-2.62;172.33
0.05;0.00;1.26;-7.08;-5.64;-149.48;1.85;-2.77;167.84
0.11;-0.03;1.17;-2.31;3.81;-46.66;1.73;-2.73;166.63
0.02;-0.02;1.17;-0.46;-2.07;-0.12;1.67;-2.75;166.63
0.04;-0.03;1.14;0.31;0.91;-0.09;1.62;-2.68;166.62
0.05;-0.02;1.13;-0.06;1.59;-0.03;1.56;-2.63;166.62
0.03;-0.02;1.14;-0.03;0.77;-0.31;1.51;-2.59;166.61
0.04;-0.01;1.14;0.37;0.39;-0.02;1.49;-2.57;166.61
0.02;-0.05;1.14;-0.18;0.98;6.30;1.40;-2.51;166.78
0.02;-0.03;1.15;-0.40;-0.25;0.62;1.34;-2.49;166.80
0.03;-0.02;1.14;-0.12;0.34;0.71;1.29;-2.46;166.82
0.03;-0.03;1.14;-1.27;-1.49;-13.91;1.19;-2.48;166.39
0.03;-0.01;1.21;-1.98;-2.18;-19.90;1.11;-2.51;165.87
0.05;-0.01;1.15;0.09;1.81;-5.42;1.08;-2.46;165.72
0.03;-0.02;1.14;0.02;0.69;-2.23;1.04;-2.42;165.66
0.04;-0.30;1.12;-1.16;-1.45;-6.35;0.69;-2.45;165.50
0.33;-0.26;0.78;-2.35;5.71;-63.76;0.36;-2.60;163.78
0.05;-0.09;1.04;-5.98;4.16;-152.14;0.11;-2.49;159.82
0.01;-0.16;1.22;-5.65;-2.73;-119.29;-0.20;-2.52;156.48
-0.06;-0.11;1.22;-6.64;8.55;-228.28;-0.47;-2.19;150.32
0.06;-0.21;1.16;-9.08;9.82;-352.71;-1.02;-1.80;135.86
-0.03;-0.14;1.10;-12.27;1.64;-418.52;-1.45;-1.69;124.98
-0.25;0.02;1.16;-14.35;-0.41;-420.86;-1.79;-1.43;113.61
-0.01;-0.04;1.15;-14.66;2.95;-401.19;-2.18;-1.31;102.78
0.24;0.19;1.07;-13.54;12.08;-479.54;-2.31;-1.19;90.31
0.15;0.09;1.11;-8.66;15.17;-466.08;-2.41;-0.91;77.73
-0.21;-0.02;1.24;-14.09;-12.45;-404.67;-2.74;-1.01;67.21
-0.08;-0.11;1.14;-12.35;-9.86;-283.00;-3.12;-1.19;59.28
-0.24;-0.18;1.22;-18.11;-26.41;-220.45;-3.68;-1.68;53.33
-0.03;-0.03;1.22;-10.03;3.03;-259.82;-3.93;-1.53;45.54
0.01;0.00;1.07;-9.47;2.05;-228.20;-4.10;-1.45;39.38
-0.01;0.14;1.04;1.82;0.62;-146.22;-3.81;-1.40;35.43
0.06;0.11;1.13;-0.05;5.91;-47.71;-3.64;-1.27;34.14
-0.01;-0.10;1.15;-0.67;-0.39;7.83;-3.68;-1.24;34.35
0.03;-0.19;1.11;-4.82;13.90;-0.78;-3.93;-0.88;34.33
0.18;0.22;1.09;15.73;4.07;0.78;-3.25;-0.91;34.35
0.06;-0.04;1.15;-3.24;-15.75;-48.63;-3.31;-1.37;33.04
0.03;0.00;1.17;-1.31;-0.45;-51.15;-3.28;-1.38;31.66
0.01;-0.09;1.13;-0.50;-0.58;-27.06;-3.31;-1.38;30.95
0.02;0.06;1.15;0.31;1.93;-22.23;-3.17;-1.32;30.29
0.03;0.01;1.14;0.50;5.00;-15.87;-3.09;-1.18;29.84
0.04;-0.07;1.14;0.26;3.13;-21.15;-3.09;-1.12;29.29
0.01;-0.05;1.15;-0.55;-0.19;-14.60;-3.09;-1.11;28.90
-0.06;0.06;1.19;-1.01;0.04;-22.23;-3.00;-1.04;28.32
0.04;0.01;1.14;0.93;5.00;-26.89;-2.91;-0.92;27.59
0.03;-0.01;1.14;0.40;0.83;-13.41;-2.85;-0.92;27.23
0.02;-0.02;1.15;0.09;1.56;-10.03;-2.81;-0.88;26.97
0.03;-0.01;1.14;-0.26;0.92;-18.16;-2.77;-0.87;26.46
0.02;-0.02;1.15;0.27;2.68;-13.67;-2.73;-0.80;26.09
0.02;-0.02;1.15;-0.15;1.49;-13.42;-2.70;-0.76;25.69
0.02;-0.02;1.16;-1.50;-3.00;-12.37;-2.71;-0.84;25.36
0.02;-0.02;1.15;-0.72;-0.82;-15.36;-2.69;-0.86;24.94
0.02;-0.02;1.16;-1.16;-1.14;-21.62;-2.69;-0.89;24.38
0.02;-0.02;1.15;-1.36;-3.17;-14.58;-2.69;-0.97;23.99
0.02;-0.02;1.15;-0.12;0.08;-12.74;-2.66;-0.97;23.64
0.01;-0.03;1.15;-0.40;-0.44;-12.92;-2.65;-0.97;23.29
0.02;-0.02;1.15;-0.85;-2.04;-13.85;-2.64;-1.03;22.92
0.02;-0.01;1.14;-0.55;0.29;-19.82;-2.61;-1.02;22.38
0.02;-0.01;1.16;-0.90;0.36;-25.56;-2.59;-1.02;21.62
0.01;-0.03;1.15;-0.29;2.81;-47.56;-2.58;-0.93;20.33
0.02;-0.03;1.14;-1.02;2.48;-54.52;-2.58;-0.87;18.92
0.02;-0.04;1.16;-1.40;1.32;-67.62;-2.60;-0.84;17.09
0.04;-0.03;1.13;-3.56;-2.96;-88.19;-2.76;-1.01;12.68
0.02;-0.05;1.15;-3.22;-1.48;-99.24;-2.84;-1.04;10.00
0.07;-0.05;1.14;-3.63;0.58;-117.33;-2.92;-1.07;6.95
0.14;-0.10;1.16;-3.16;6.54;-162.78;-3.04;-1.00;2.55
0.09;-0.06;1.15;-3.28;8.05;-222.09;-3.12;-0.85;-3.44
-0.14;-0.08;1.16;-10.90;-6.09;-243.24;-3.40;-0.86;-9.77
0.05;-0.07;1.16;15.95;43.32;-290.54;-2.92;0.43;-18.77
0.01;-0.04;1.14;-15.91;-15.61;-303.24;-3.32;0.00;-26.96
-0.06;-0.10;1.22;-8.24;-3.35;-324.83;-3.55;-0.03;-35.41
-0.26;-0.20;1.14;-4.52;4.43;-253.45;-3.76;0.31;-42.25
0.02;-0.12;1.14;-16.03;-4.82;-355.68;-4.25;0.15;-52.21
0.00;-0.04;1.17;-13.65;-6.58;-353.16;-4.55;-0.02;-61.39
-0.04;-0.05;1.15;-11.44;2.42;-342.03;-4.82;0.08;-70.97
-0.11;-0.14;1.20;-9.76;2.42;-363.16;-5.10;0.23;-80.41
-0.04;-0.02;1.19;-9.53;3.88;-351.90;-5.27;0.37;-89.91
-0.04;0.02;1.16;-10.05;0.86;-331.77;-5.44;0.43;-99.86
-0.10;-0.08;1.14;-5.82;3.01;-330.12;-5.55;0.59;-108.45
-0.10;-0.02;1.23;-6.72;1.81;-332.60;-5.63;0.72;-117.43
0.15;0.03;1.12;-2.34;6.77;-331.73;-5.56;0.74;-126.72
0.03;0.04;1.11;-11.30;-6.94;-313.68;-5.70;0.52;-134.87
-0.04;-0.06;1.15;-9.92;-3.34;-321.06;-5.91;0.46;-143.54
0.02;-0.07;1.12;-6.56;1.75;-308.61;-6.04;0.47;-151.87
-0.21;-0.02;1.20;-4.61;5.52;-313.24;-6.05;0.80;-160.02
-0.13;0.02;1.13;-1.21;10.65;-270.54;-5.95;1.19;-167.32
0.01;-0.08;1.15;-10.21;-6.99;-239.22;-6.22;0.95;-174.74
-0.00;0.05;1.16;-6.34;-1.92;-230.80;-6.21;0.89;-180.74
-0.12;0.16;1.15;-3.68;-1.89;-171.22;-6.04;0.92;-185.53
-0.05;0.07;1.16;-2.03;-1.72;-125.30;-5.90;0.90;-188.92
-0.01;0.02;1.15;-2.69;-2.97;-90.11;-5.84;0.81;-191.35
-0.01;0.04;1.12;-2.40;-2.68;-60.89;-5.75;0.74;-192.99
-0.08;0.06;1.14;-0.50;-0.42;-19.42;-5.59;0.78;-193.50
0.02;-0.02;1.15;0.81;0.51;0.41;-5.48;0.76;-193.49
-0.01;-0.02;1.14;0.73;2.33;2.91;-5.36;0.82;-193.41
-0.03;-0.01;1.14;0.98;1.38;28.90;-5.24;0.86;-192.66
-0.06;0.01;1.15;3.28;2.54;77.54;-5.03;0.98;-190.17
0.05;-0.01;1.13;2.38;-0.44;114.58;-4.88;0.90;-186.97
0.04;0.01;1.10;4.46;1.76;164.17;-4.65;0.89;-182.70
-0.02;0.03;1.14;7.37;3.85;200.47;-4.33;0.99;-177.29
-0.16;0.03;1.15;13.88;16.29;264.27;-3.83;1.57;-169.89
-0.03;-0.05;1.14;8.46;6.58;333.39;-3.59;1.74;-161.22
-0.02;-0.03;1.15;9.05;3.78;356.90;-3.30;1.82;-151.22
-0.09;-0.01;1.16;8.40;6.83;383.13;-3.03;2.05;-141.26
-0.02;0.00;1.15;6.02;-0.58;435.81;-2.81;2.01;-129.50
0.01;-0.01;1.13;9.25;6.49;409.83;-2.49;2.16;-116.79
-0.10;-0.02;1.15;11.71;12.95;422.84;-2.15;2.56;-105.38
-0.13;-0.11;1.13;8.03;6.31;435.69;-1.99;2.79;-93.61
-0.07;-0.06;1.19;2.50;-6.06;386.78;-1.94;2.65;-83.17
0.05;-0.11;1.10;-0.55;-8.13;366.04;-2.03;2.34;-73.65
-0.04;-0.01;1.20;5.34;1.21;342.73;-1.86;2.36;-64.40
-0.09;0.12;1.03;8.95;9.97;364.21;-1.46;2.68;-54.20
-0.05;0.03;1.20;11.85;10.48;405.92;-1.10;2.94;-43.65
0.19;-0.22;1.09;15.62;23.49;395.59;-0.86;3.34;-32.96
-0.11;-0.06;1.06;4.23;1.10;330.46;-0.79;3.42;-23.71
-0.02;-0.14;1.13;1.02;-1.46;350.93;-0.88;3.32;-13.54
0.04;0.11;1.09;1.04;-4.83;349.63;-0.73;3.08;-4.10
0.07;-0.18;1.17;4.78;6.46;228.06;-0.75;3.14;2.06
0.04;-0.15;1.14;-0.58;-2.16;146.07;-0.90;2.98;5.86
0.09;-0.18;1.16;0.61;-0.25;87.54;-1.02;2.83;8.31
-0.01;-0.01;1.15;-0.61;-0.96;-0.22;-1.04;2.74;8.30
0.08;-0.01;1.14;-3.77;-6.76;-6.52;-1.13;2.43;8.12
-0.00;-0.02;1.15;-3.44;-5.51;-17.12;-1.22;2.24;7.68
0.10;-0.04;1.14;-0.15;1.17;-27.61;-1.24;2.13;6.93
-0.00;-0.00;1.15;-1.76;-2.25;-37.38;-1.26;2.03;5.92
-0.01;-0.01;1.16;-4.09;-6.94;-31.30;-1.36;1.79;4.99
-0.00;-0.01;1.15;-3.15;-6.94;-29.96;-1.43;1.57;4.18
0.02;-0.03;1.14;-3.65;-8.00;-28.05;-1.52;1.32;3.45
-0.24;0.07;1.14;-17.65;-27.03;-13.27;-1.90;0.81;3.09
0.01;-0.02;1.15;-2.92;-6.93;-0.40;-1.96;0.60;3.08
0.03;-0.03;1.15;2.06;7.84;-16.54;-1.89;0.75;2.65
0.02;-0.01;1.16;3.40;9.97;-18.52;-1.77;0.98;2.15
0.05;-0.01;1.15;4.76;12.20;-44.31;-1.62;1.23;0.95
0.02;-0.03;1.14;3.21;6.52;-64.32;-1.53;1.35;-0.72
-0.04;-0.02;1.21;-9.62;-16.74;-60.23;-1.81;0.85;-2.59
-0.01;-0.01;1.15;-0.26;2.20;-46.08;-1.79;0.91;-3.83
-0.01;-0.01;1.15;-1.73;-3.29;-22.49;-1.81;0.81;-4.42
0.01;-0.02;1.14;2.37;7.33;-22.55;-1.72;0.98;-5.05
0.00;-0.02;1.14;3.42;7.39;-10.29;-1.61;1.16;-5.33
-0.04;-0.01;1.20;-1.85;-3.48;-3.19;-1.64;1.08;-5.41
0.02;-0.02;1.15;5.74;10.97;-0.25;-1.46;1.34;-5.42
-0.00;-0.01;1.14;4.84;7.20;0.21;-1.32;1.49;-5.41
-0.00;-0.01;1.14;3.50;4.94;0.32;-1.21;1.60;-5.40
-0.00;-0.01;1.16;0.69;1.35;0.27;-1.18;1.60;-5.39
0.00;-0.01;1.16;0.69;3.35;-0.58;-1.15;1.67;-5.41
-0.01;-0.01;1.16;4.69;7.50;0.15;-1.02;1.84;-5.41
0.01;-0.01;1.15;1.31;3.79;-0.31;-0.97;1.90;-5.42
0.01;-0.01;1.15;2.69;4.71;-0.00;-0.90;1.97;-5.42
-0.01;-0.01;1.13;-1.13;-1.14;-0.08;-0.92;1.92;-5.42
0.01;-0.01;1.12;-2.99;-4.71;0.42;-0.98;1.75;-5.41
0.07;-0.03;1.16;-9.73;-12.71;-6.03;-1.24;1.32;-5.56
-0.01;-0.01;1.15;2.64;3.79;-26.86;-1.15;1.41;-6.32
0.02;-0.02;1.14;0.50;1.94;-32.46;-1.13;1.41;-7.16
-0.03;-0.00;1.15;1.18;0.34;-42.20;-1.08;1.42;-8.30
-0.09;0.01;1.14;-6.00;-11.63;-2.05;-1.23;1.14;-8.36
0.04;-0.03;1.15;-4.85;-6.56;-7.61;-1.36;0.91;-8.57
-0.01;-0.00;1.14;0.70;3.55;-7.77;-1.32;0.99;-8.78
-0.00;-0.02;1.16;1.08;1.97;0.26;-1.28;1.03;-8.77
-0.16;0.05;1.15;2.85;5.96;24.93;-1.13;1.31;-8.12
0.01;0.08;1.13;-3.39;-4.58;79.51;-1.12;1.15;-5.97
0.09;0.15;1.14;3.51;1.39;159.25;-0.86;1.09;-1.67
0.06;0.11;1.17;10.34;8.84;274.87;-0.48;1.24;5.47
0.03;0.12;1.15;6.43;-1.40;383.00;-0.18;1.16;15.81
0.07;0.26;1.12;5.47;-3.52;427.89;0.20;0.99;26.94
-0.10;0.09;1.18;-12.81;-43.14;481.71;-0.10;-0.21;41.39
-0.12;-0.02;1.15;13.36;-8.01;502.61;0.24;-0.30;54.96
-0.26;0.05;1.10;22.55;18.46;502.61;0.85;0.43;68.03
-0.57;0.21;1.18;-5.19;-47.11;502.61;0.83;-0.43;82.10
-0.03;-0.11;1.22;20.18;16.89;502.61;1.24;0.05;95.67
-0.67;0.43;1.56;34.75;45.27;502.61;2.33;1.57;108.74
0.02;-0.35;1.19;8.93;-22.19;502.61;2.21;0.92;122.81
-0.06;-0.13;1.15;17.31;11.49;451.25;2.50;1.26;135.00
-0.37;0.05;1.42;9.22;-11.75;414.42;2.72;1.22;145.77
-0.12;-0.08;1.37;10.96;5.76;341.52;2.89;1.44;154.99
0.00;0.01;1.17;7.36;-0.53;233.55;3.13;1.38;164.33
0.08;-0.08;1.09;10.61;11.96;175.81;3.26;1.59;168.91
-0.02;-0.20;1.17;13.21;15.53;118.13;3.37;1.99;172.21
0.03;-0.09;1.16;-4.70;-7.63;40.32;2.98;1.55;174.27
0.00;-0.06;1.15;4.64;9.17;11.02;2.99;1.77;174.58
0.01;-0.01;1.16;0.35;-1.05;-0.22;2.93;1.69;174.57
0.01;-0.01;1.15;-1.98;-3.83;0.52;2.81;1.54;174.59
0.00;-0.01;1.14;-6.32;-10.67;4.13;2.58;1.23;174.70
0.03;-0.02;1.15;-3.02;-8.48;0.52;2.43;0.95;174.71
0.02;-0.02;1.15;1.51;-1.20;-0.37;2.40;0.88;174.70
0.03;-0.02;1.14;-0.79;-3.03;0.17;2.31;0.75;174.71
0.09;-0.04;1.16;0.99;0.52;-1.88;2.25;0.65;174.66
0.02;-0.02;1.12;-2.56;-4.94;-7.16;2.12;0.49;174.46
0.03;-0.04;1.18;-7.86;-14.53;-19.94;1.84;0.07;173.93
0.06;-0.03;1.16;-3.18;-6.03;-36.20;1.69;-0.14;172.98
0.08;-0.08;1.13;-2.31;0.83;-69.33;1.52;-0.19;171.11
0.16;-0.06;1.10;-1.31;10.71;-120.86;1.40;-0.06;167.85
-0.06;-0.03;1.27;-1.45;3.04;-143.56;1.31;0.07;164.12
-0.09;-0.19;1.11;-7.36;-9.90;-117.80;0.90;-0.11;160.94
0.02;-0.13;1.15;-8.46;-4.80;-167.85;0.50;-0.28;155.73
-0.05;-0.03;1.22;-8.20;-1.42;-223.71;0.24;-0.27;149.69
0.04;-0.14;1.03;-11.33;-4.16;-270.20;-0.21;-0.41;142.40
0.00;-0.10;1.09;-15.51;-4.53;-335.29;-0.73;-0.52;133.34
0.04;-0.12;1.21;-15.74;-0.21;-391.94;-1.23;-0.55;122.76
-0.07;-0.06;1.15;-17.80;2.75;-456.96;-1.76;-0.40;109.97
-0.19;0.01;1.19;-18.35;-0.85;-463.24;-2.18;-0.23;97.92
0.01;0.01;1.12;-17.27;2.37;-466.96;-2.60;-0.18;84.85
0.25;-0.10;1.08;-20.72;0.23;-497.93;-3.18;-0.40;71.40
-0.17;-0.11;1.11;-24.99;0.54;-497.93;-3.85;-0.22;58.46
-0.10;0.05;1.08;-20.61;4.19;-497.93;-4.32;0.01;43.52
-0.00;-0.00;1.06;-16.87;7.53;-477.99;-4.69;0.21;30.61
-0.19;0.02;1.36;-15.16;4.81;-452.34;-4.96;0.48;18.85
-0.05;0.15;1.18;-15.36;-2.71;-417.87;-5.14;0.44;7.15
-0.01;0.10;1.18;-9.34;6.66;-349.83;-5.19;0.61;-2.29
-0.09;-0.03;1.15;-4.44;8.77;-281.00;-5.22;0.91;-9.60
-0.02;0.04;1.09;-3.92;10.49;-212.09;-5.18;1.19;-15.32
0.07;0.20;1.19;-6.98;-12.64;-120.03;-5.07;0.79;-18.45
0.04;0.14;1.14;-3.31;-0.50;-73.94;-4.92;0.73;-20.52
-0.00;-0.00;1.15;-0.34;3.78;-43.91;-4.83;0.83;-21.83
0.02;0.02;1.16;-1.48;-3.81;-23.25;-4.76;0.69;-22.44
0.00;0.02;1.14;-0.58;-4.03;-5.07;-4.66;0.57;-22.58
0.02;-0.02;1.13;0.14;-0.62;0.12;-4.58;0.52;-22.57
0.02;-0.02;1.14;0.34;0.14;0.10;-4.50;0.50;-22.57
0.02;-0.02;1.15;-0.50;-2.33;0.20;-4.45;0.41;-22.56
0.01;-0.02;1.15;-0.92;-2.88;0.76;-4.40;0.31;-22.54
-0.04;0.02;1.15;-3.68;-16.01;41.28;-4.39;-0.06;-21.47
-0.06;0.06;1.16;0.75;-6.74;76.00;-4.22;-0.18;-19.42
0.03;0.07;1.15;4.53;-7.48;166.18;-3.96;-0.40;-15.10
0.04;0.07;1.19;12.24;-4.93;334.35;-3.47;-0.57;-5.40
0.04;0.13;1.17;18.15;0.55;460.09;-2.78;-0.58;7.48
-0.32;0.12;1.22;21.54;-0.07;502.61;-2.09;-0.30;20.55
-0.24;0.19;1.18;24.15;3.53;502.61;-1.26;-0.00;34.12
0.10;0.01;1.11;24.09;16.75;502.61;-0.56;0.36;48.19
-0.30;-0.20;1.02;31.79;32.52;502.61;0.09;1.45;61.26
-0.30;0.22;1.09;14.87;5.00;502.61;0.66;1.81;74.83
0.16;-0.41;0.95;-11.91;-8.29;502.61;-0.09;1.41;88.90
-0.08;0.09;1.25;5.39;-3.06;502.61;0.13;1.37;101.97
0.23;-0.25;1.12;8.12;0.29;502.61;0.13;1.16;115.54
0.18;-0.31;1.19;6.20;3.75;343.20;0.06;1.12;126.18
-0.11;-0.04;1.10;-6.18;-4.97;271.37;-0.14;1.08;133.24
-0.12;-0.12;1.15;16.72;26.84;280.26;0.22;1.90;141.08
-0.01;-0.15;1.17;4.02;6.48;159.11;0.27;2.20;149.20
0.05;-0.08;1.06;-0.11;-1.29;71.46;0.18;2.07;151.27
-0.10;-0.07;1.15;-0.32;-1.55;20.65;0.10;2.09;151.81
0.00;-0.01;1.14;0.52;-0.73;-0.02;0.11;2.02;151.81
0.00;-0.01;1.11;1.53;0.23;0.61;0.14;1.98;151.82
0.01;-0.01;1.15;-1.79;-3.66;-0.17;0.08;1.85;151.82
0.01;-0.02;1.17;-2.49;-7.89;-9.54;-0.01;1.56;151.53
0.03;-0.01;1.14;0.60;-4.45;-13.10;0.00;1.38;151.17
0.06;-0.06;1.14;-4.27;-8.82;-48.84;-0.17;1.08;149.90
0.10;-0.15;1.16;-1.47;0.07;-118.29;-0.34;0.97;146.70
0.05;-0.14;1.32;-0.64;0.25;-198.66;-0.47;0.92;141.14
0.27;-0.15;0.85;-13.05;-7.14;-252.06;-0.94;0.41;134.59
-0.04;-0.03;1.01;-11.21;-10.71;-272.96;-1.25;0.17;127.22
0.07;-0.14;1.08;-2.49;8.54;-312.86;-1.43;0.32;119.08
-0.01;-0.04;1.13;-17.77;-18.12;-332.43;-1.91;-0.16;110.11
-0.09;-0.01;1.18;-17.18;-15.96;-294.06;-2.35;-0.50;101.87
-0.19;-0.03;1.23;-8.14;1.52;-339.76;-2.65;-0.26;88.28
-0.10;-0.07;1.09;-14.81;-5.37;-347.10;-3.04;-0.29;79.26
0.04;-0.02;1.20;-16.79;-7.22;-363.83;-3.45;-0.52;69.43
0.11;-0.02;1.09;-15.95;-5.93;-351.73;-3.84;-0.78;59.59
-0.03;-0.02;1.14;-13.69;-4.90;-371.58;-4.13;-0.87;49.92
-0.10;-0.06;1.18;-10.56;2.80;-362.48;-4.40;-0.68;39.78
-0.10;-0.09;1.18;-10.73;2.81;-340.51;-4.67;-0.50;30.92
0.07;-0.03;1.12;-8.98;6.05;-343.12;-4.85;-0.40;21.32
-0.01;0.03;1.17;-5.74;12.05;-331.94;-4.88;-0.06;12.35
-0.01;-0.00;1.14;-4.60;6.39;-291.88;-4.92;0.14;3.60
-0.04;-0.09;1.15;6.00;22.68;-271.58;-4.74;0.80;-4.01
-0.00;0.07;1.18;1.47;8.29;-294.43;-4.54;1.00;-11.96
-0.05;0.09;1.11;-4.64;2.05;-299.58;-4.48;1.08;-19.75
-0.04;0.13;1.07;-4.89;2.48;-220.17;-4.39;1.17;-25.91
0.04;-0.23;1.17;-2.44;2.19;-152.96;-4.58;1.17;-30.04
0.06;0.03;1.11;-0.03;0.28;-174.12;-4.46;1.10;-34.57
0.04;0.01;1.12;-0.46;0.84;-177.68;-4.37;1.06;-39.37
-0.08;0.14;1.10;0.31;1.13;-118.49;-4.15;1.14;-42.45
-0.00;0.08;1.12;-0.29;0.63;-3.59;-3.99;1.14;-42.56
0.04;-0.01;1.13;-0.21;4.49;1.97;-3.93;1.20;-42.50
-0.03;0.01;1.15;0.38;-0.03;7.94;-3.83;1.20;-42.30
0.07;0.01;1.18;-0.55;-5.26;34.97;-3.76;0.97;-41.35
-0.10;0.00;1.16;-3.02;-11.34;57.08;-3.76;0.75;-39.81
0.00;-0.02;1.17;-4.92;-11.48;48.99;-3.83;0.43;-38.49
-0.02;0.00;1.22;-5.82;-12.73;13.36;-3.91;0.11;-38.13
0.08;-0.03;1.13;-1.28;-1.00;7.66;-3.89;0.00;-37.92
-0.01;-0.00;1.14;2.00;5.75;3.97;-3.77;0.16;-37.81
-0.00;0.00;1.15;2.15;4.42;32.04;-3.63;0.27;-36.95
-0.06;0.02;1.15;0.99;-0.82;65.74;-3.52;0.30;-34.91
0.10;-0.02;1.17;3.77;7.79;66.64;-3.37;0.40;-33.18
0.06;-0.03;1.15;-1.85;-1.58;47.28;-3.38;0.29;-31.85
0.04;-0.02;1.15;0.31;0.39;17.89;-3.32;0.26;-31.37
0.01;-0.02;1.15;-0.23;-2.10;1.95;-3.28;0.18;-31.32
0.00;-0.01;1.15;-4.12;-6.16;-0.26;-3.33;0.01;-31.33
0.04;-0.02;1.15;-1.77;-3.19;-3.70;-3.33;-0.11;-31.42
-0.00;-0.01;1.15;1.15;1.47;-3.39;-3.24;-0.06;-31.51
0.01;-0.01;1.14;-0.18;-1.14;-0.63;-3.19;-0.10;-31.53
0.01;-0.00;1.14;-5.65;-9.49;-0.52;-3.27;-0.35;-31.54
0.02;-0.02;1.16;-6.26;-10.09;-0.22;-3.42;-0.66;-31.55
0.02;-0.01;1.15;-1.11;-1.89;0.12;-3.40;-0.71;-31.55
0.06;-0.03;1.15;1.07;0.91;-4.95;-3.33;-0.73;-31.68
-0.13;0.01;1.13;-4.37;-6.35;-22.34;-3.47;-0.90;-32.79
0.03;-0.02;1.14;-8.78;-16.67;0.09;-3.66;-1.37;-32.79
0.02;-0.14;1.14;-1.05;-0.67;-14.87;-3.75;-1.38;-33.21
-0.04;-0.08;1.21;2.08;4.16;-63.48;-3.70;-1.22;-34.86
0.01;-0.09;1.13;1.31;9.33;-107.82;-3.69;-0.96;-37.77
-0.07;-0.18;1.14;-5.33;1.24;-172.02;-3.93;-0.85;-42.41
-0.03;-0.12;1.17;-6.72;0.08;-252.34;-4.16;-0.80;-49.98
-0.02;-0.02;1.22;-9.02;-2.65;-327.19;-4.33;-0.84;-58.82
0.08;-0.00;1.13;-11.22;-0.51;-371.99;-4.54;-0.92;-68.86
0.14;-0.02;1.18;-12.12;-3.63;-402.75;-4.79;-1.12;-79.74
-0.03;-0.13;1.16;-14.85;-3.81;-413.48;-5.22;-1.18;-90.90
0.03;-0.06;1.25;-12.05;-2.80;-429.88;-5.49;-1.26;-102.94
0.10;-0.04;1.13;-12.43;2.52;-433.76;-5.75;-1.27;-114.65
0.06;-0.02;1.12;-13.76;-1.35;-396.43;-6.02;-1.34;-125.35
-0.06;-0.12;1.21;-15.98;-5.52;-403.68;-6.42;-1.41;-136.25
-0.13;-0.22;1.16;-17.34;-1.35;-477.33;-7.02;-1.31;-151.05
0.02;-0.20;1.13;-20.31;-5.43;-497.93;-7.63;-1.46;-164.99
-0.04;-0.15;1.17;-19.91;1.68;-497.93;-8.13;-1.35;-177.94
-0.16;0.02;1.27;-18.67;0.11;-497.93;-8.47;-1.18;-191.88
-0.13;-0.03;1.22;-16.14;4.05;-497.53;-8.75;-0.93;-205.31
-0.19;0.11;1.17;-14.12;5.38;-400.20;-8.84;-0.60;-215.72
-0.11;0.16;1.12;-8.20;5.94;-250.20;-8.73;-0.33;-222.47
-0.08;0.06;1.23;-5.57;-1.03;-177.21;-8.65;-0.28;-227.26
-0.06;0.04;1.18;-2.89;4.13;-142.26;-8.52;-0.11;-230.96
-0.06;-0.00;1.22;2.43;2.11;-80.08;-8.28;0.01;-233.36
-0.06;0.00;1.16;8.00;14.75;-47.44;-7.90;0.46;-234.64
-0.10;0.02;1.15;5.05;9.70;-7.48;-7.59;0.80;-234.83
0.01;-0.02;1.14;6.38;10.02;-0.23;-7.29;1.05;-234.84
-0.01;-0.01;1.16;5.25;8.68;0.06;-7.02;1.26;-234.84
0.01;-0.02;1.15;2.82;3.90;-0.19;-6.82;1.32;-234.84
0.02;-0.02;1.16;5.18;7.87;-0.35;-6.56;1.50;-234.85
0.00;-0.01;1.13;3.04;5.03;-0.57;-6.37;1.59;-234.87
-0.13;0.04;1.10;5.51;10.77;7.25;-6.05;1.98;-234.67
-0.12;-0.02;1.18;8.56;13.38;66.26;-5.71;2.42;-232.82
0.00;-0.02;1.16;3.19;8.17;94.20;-5.49;2.69;-229.05
0.01;-0.00;1.15;0.50;2.55;107.36;-5.37;2.69;-226.26
0.12;-0.08;1.09;-2.23;-4.73;122.38;-5.40;2.39;-222.83
-0.08;0.04;1.10;3.65;4.86;150.52;-5.16;2.55;-218.77
-0.05;0.04;1.12;2.26;-0.82;214.15;-4.96;2.53;-212.99
-0.04;0.08;1.16;-1.02;-3.90;245.84;-4.81;2.41;-206.35
-0.17;0.05;1.19;-9.04;-23.51;279.66;-4.90;1.92;-199.08
-0.11;0.08;1.14;-3.73;-13.26;338.65;-4.83;1.63;-189.93
-0.15;-0.00;1.12;4.98;-1.77;375.05;-4.60;1.71;-179.81
-0.28;0.05;1.15;9.30;3.97;484.62;-4.20;2.04;-165.75
0.19;-0.24;1.20;14.60;20.40;502.61;-3.93;2.39;-152.18
-0.11;0.02;1.10;8.85;13.73;502.61;-3.60;2.81;-138.61
-0.19;-0.22;1.17;3.37;-3.22;502.61;-3.62;2.83;-125.04
0.03;-0.27;1.05;-4.14;-19.31;502.61;-3.94;2.24;-111.47
0.73;-0.32;1.31;40.40;78.11;502.61;-2.93;3.86;-97.40
-0.35;0.29;1.17;13.39;8.80;502.61;-2.31;4.27;-84.33
0.26;-0.32;1.09;2.63;-5.11;502.61;-2.46;3.84;-70.26
-0.08;-0.15;1.20;-1.69;-19.23;326.75;-2.59;3.32;-61.44
0.17;-0.18;1.11;-10.35;-53.95;284.18;-2.96;1.73;-54.05
0.09;-0.02;1.07;8.05;2.66;260.59;-2.69;1.68;-46.23
0.02;-0.06;1.22;9.36;1.44;231.07;-2.44;1.67;-39.99
0.08;-0.05;1.13;5.05;-3.54;175.48;-2.32;1.46;-35.43
0.02;-0.05;1.16;3.24;-2.39;112.88;-2.23;1.35;-32.27
-0.03;-0.11;1.25;1.08;-6.25;101.55;-2.26;1.19;-29.63
0.02;-0.03;1.15;-1.85;-4.21;-8.75;-2.33;0.92;-30.10
0.12;-0.03;1.13;0.35;4.00;-40.64;-2.31;0.89;-31.16
0.02;-0.03;1.16;-0.43;5.79;-68.81;-2.30;1.01;-33.08
0.02;-0.03;1.17;-2.17;1.64;-94.45;-2.34;1.02;-35.63
-0.02;-0.02;1.16;-1.97;1.03;-78.75;-2.37;1.05;-38.00
0.07;-0.12;1.14;-1.28;3.07;-78.55;-2.47;1.05;-40.12
0.18;-0.09;1.13;-2.21;9.44;-164.60;-2.56;1.11;-44.56
-0.00;0.05;1.16;0.49;10.77;-191.82;-2.45;1.37;-49.55
-0.10;0.03;1.12;-0.76;10.20;-153.93;-2.39;1.71;-53.70
-0.17;0.05;1.13;4.38;10.80;-75.94;-2.19;2.13;-55.75
0.02;-0.02;1.16;-3.30;-4.93;0.03;-2.25;1.93;-55.75
0.02;-0.02;1.14;4.06;10.42;-0.26;-2.12;2.15;-55.76
-0.00;-0.02;1.15;2.26;4.88;1.31;-2.03;2.24;-55.72
-0.03;0.00;1.15;-0.35;-2.18;20.70;-2.00;2.17;-55.17
0.05;-0.03;1.14;-2.37;-5.17;2.10;-2.06;1.92;-55.10
0.02;-0.02;1.16;0.96;1.13;1.17;-2.01;1.90;-55.07
0.01;-0.01;1.14;7.13;13.15;-0.52;-1.79;2.20;-55.08
-0.06;0.03;1.04;10.53;18.98;-1.13;-1.44;2.72;-55.11
-0.01;-0.00;1.13;1.89;4.78;0.06;-1.37;2.80;-55.11
0.02;-0.02;1.12;-0.44;-0.30;-0.58;-1.37;2.71;-55.13
0.01;-0.01;1.14;0.85;0.10;-0.08;-1.33;2.66;-55.13
-0.01;-0.02;1.14;-1.71;-2.87;-0.12;-1.36;2.53;-55.13
-0.00;-0.01;1.15;-8.63;-20.21;0.84;-1.57;1.95;-55.11
0.01;-0.01;1.15;-11.68;-21.78;0.88;-1.84;1.35;-55.09
-0.03;-0.01;1.21;-25.28;-47.72;2.24;-2.59;-0.10;-55.02
0.02;-0.01;1.12;-3.57;-5.11;-0.22;-2.64;-0.26;-55.03
0.02;-0.01;1.15;-0.55;-1.48;-0.06;-2.62;-0.31;-55.03
0.02;-0.02;1.14;-1.31;-2.91;0.17;-2.61;-0.40;-55.02
0.03;-0.02;1.14;0.06;2.10;-0.26;-2.58;-0.36;-55.03
0.02;-0.03;1.15;2.21;6.95;-1.00;-2.50;-0.20;-55.06
-0.01;-0.01;1.16;8.29;20.19;-25.62;-2.24;0.35;-55.75
-0.01;-0.01;1.13;1.97;6.52;-7.15;-2.15;0.53;-55.95
0.01;-0.01;1.15;-0.64;2.42;-5.99;-2.14;0.57;-56.10
0.00;-0.01;1.14;-0.09;2.62;-0.58;-2.11;0.63;-56.12
0.02;-0.01;1.17;1.59;4.86;-0.34;-2.04;0.73;-56.13
0.02;-0.01;1.15;4.81;6.98;-0.29;-1.89;0.88;-56.14
0.01;-0.01;1.14;13.89;18.62;0.20;-1.48;1.36;-56.13
0.01;-0.02;1.15;3.31;5.46;5.81;-1.38;1.47;-55.98
-0.00;-0.00;1.13;2.95;3.73;0.65;-1.28;1.54;-55.96
-0.06;0.02;1.12;-1.40;1.32;4.93;-1.27;1.60;-55.83
-0.05;0.02;1.14;-7.89;-1.29;64.85;-1.43;1.58;-54.14
0.04;0.12;1.17;-14.03;-18.27;178.93;-1.66;1.03;-49.31
0.02;0.11;1.11;2.63;-7.57;341.57;-1.45;0.78;-39.75
-0.08;0.21;1.19;18.56;31.93;494.32;-0.70;1.74;-25.41
-0.05;0.14;1.17;10.47;-25.60;502.61;-0.28;1.07;-11.84
-0.67;0.34;1.27;23.83;13.62;502.61;0.56;1.86;1.73
-0.17;0.02;1.04;17.01;-19.66;502.61;1.01;1.48;15.30
-0.18;-0.30;1.22;19.86;-12.18;502.61;1.28;1.26;28.87
-0.02;-0.09;1.14;25.97;0.46;502.61;1.83;1.27;41.94
0.23;-0.28;1.24;11.47;-20.06;502.61;1.89;0.52;56.01
0.21;-0.22;1.15;23.10;22.26;421.36;2.28;0.93;67.38
0.08;-0.15;1.08;6.35;3.81;269.05;2.24;0.93;74.38
-0.01;-0.12;1.16;16.03;20.40;211.13;2.51;1.46;80.08
-0.31;0.08;1.17;6.76;9.23;165.77;2.78;2.07;86.71
-0.13;-0.06;1.17;3.50;1.17;80.75;2.77;2.19;88.89
0.03;-0.02;1.12;-9.37;-9.72;-0.72;2.45;1.85;88.87
0.04;-0.03;1.14;-4.34;-16.73;-19.41;2.26;1.33;88.35
-0.01;-0.02;1.18;-12.58;-22.35;-20.11;1.55;0.18;87.30
0.04;-0.04;1.11;-1.01;0.22;-38.38;1.45;0.15;86.23
0.08;-0.06;1.12;-2.96;-0.39;-63.48;1.30;0.06;84.58
0.07;-0.08;1.14;-2.23;1.49;-112.05;1.14;0.03;81.55
0.13;-0.18;1.10;-4.53;3.49;-186.75;0.83;0.01;76.51
0.13;-0.21;1.15;-3.28;12.86;-286.11;0.54;0.22;69.07
-0.00;-0.11;1.10;-9.48;-1.31;-385.99;0.13;0.19;57.10
-0.08;-0.17;1.20;-16.43;-7.14;-451.88;-0.46;0.06;44.90
-0.21;-0.12;1.14;-20.84;-9.38;-497.93;-1.10;0.00;31.46
-0.17;-0.07;1.16;-21.48;-6.25;-497.93;-1.71;-0.01;18.02
0.02;0.01;1.13;-15.95;2.57;-497.93;-2.09;0.04;4.57
0.02;0.02;1.15;-12.70;11.01;-497.93;-2.36;0.31;-8.87
-0.22;-0.11;1.03;-32.32;-18.73;-497.93;-3.27;0.03;-22.32
-0.10;0.01;1.09;-20.70;-2.62;-497.93;-3.74;0.06;-35.76
0.02;-0.01;1.11;-13.33;1.79;-431.73;-4.03;0.09;-47.42
0.10;0.07;1.10;-12.72;0.26;-345.29;-4.27;-0.00;-58.12
0.07;0.10;1.17;-13.40;-8.03;-263.87;-4.45;-0.28;-65.24
-0.06;0.07;1.15;-9.69;-4.97;-179.03;-4.55;-0.35;-70.08
-0.06;0.18;1.20;0.27;5.79;-77.79;-4.29;-0.13;-72.26
-0.01;0.04;1.15;1.91;7.13;-26.80;-4.12;0.07;-72.95
-0.03;0.01;1.12;0.84;1.39;-2.96;-4.00;0.14;-73.03
0.04;-0.03;1.15;-2.47;0.20;-29.99;-4.02;0.10;-73.84
0.16;-0.07;1.14;-2.35;1.42;-70.72;-4.06;-0.01;-75.68
0.11;-0.08;1.14;-6.06;-3.87;-169.13;-4.22;-0.22;-80.25
-0.07;0.03;1.14;-5.79;-0.27;-167.33;-4.26;-0.15;-84.60
-0.15;0.10;1.11;-3.66;-4.90;-45.68;-4.19;-0.16;-86.02
0.02;-0.02;1.16;3.30;8.52;0.09;-4.04;0.05;-86.01
-0.06;0.01;1.19;-2.99;-14.77;47.10;-4.02;-0.28;-84.79
0.02;-0.00;1.15;2.27;0.25;73.22;-3.89;-0.29;-82.81
0.01;0.04;1.14;1.65;-3.75;77.34;-3.72;-0.39;-80.72
0.04;0.01;1.14;0.56;-4.94;70.29;-3.63;-0.55;-78.90
0.02;-0.05;1.13;3.44;2.39;43.17;-3.52;-0.49;-77.73
0.08;-0.06;1.13;1.45;0.00;30.56;-3.47;-0.55;-76.90
0.03;-0.02;1.12;0.98;-0.74;22.52;-3.39;-0.59;-76.32
-0.01;-0.02;1.15;1.69;2.45;30.99;-3.29;-0.49;-75.36
0.04;-0.03;1.13;1.73;0.08;35.46;-3.21;-0.52;-74.40
0.05;-0.03;1.16;0.60;-1.32;21.45;-3.16;-0.60;-73.84
-0.00;-0.01;1.17;-0.08;0.42;0.06;-3.11;-0.57;-73.84
0.03;-0.02;1.14;0.17;0.13;0.10;-3.06;-0.58;-73.84
0.02;-0.02;1.14;0.05;0.16;0.24;-3.02;-0.59;-73.83
0.02;-0.02;1.14;-0.24;0.22;0.23;-2.98;-0.59;-73.83
0.03;-0.02;1.15;-0.03;-0.27;-0.09;-2.94;-0.61;-73.83
0.02;-0.03;1.15;0.37;0.39;-0.09;-2.90;-0.61;-73.83
0.07;-0.03;1.13;-0.99;0.37;-23.62;-2.89;-0.66;-74.47
-0.04;-0.01;1.15;-0.98;-3.37;-0.60;-2.87;-0.70;-74.49
0.03;-0.02;1.15;-1.48;-4.44;-0.34;-2.87;-0.84;-74.50
0.04;-0.02;1.15;0.05;2.54;-15.93;-2.84;-0.80;-74.94
0.02;-0.02;1.15;0.23;2.39;-21.74;-2.80;-0.74;-75.51
0.04;-0.03;1.15;-0.55;1.70;-33.06;-2.78;-0.72;-76.43
0.01;-0.07;1.15;-1.39;-0.15;-49.38;-2.83;-0.72;-77.77
0.02;-0.06;1.16;-4.03;-2.88;-79.10;-2.94;-0.80;-79.90
0.05;-0.11;1.13;-5.21;0.89;-141.15;-3.12;-0.80;-83.71
0.06;-0.18;1.19;-6.47;5.50;-240.08;-3.40;-0.69;-90.20
0.01;-0.18;1.13;-12.38;0.74;-342.41;-3.84;-0.66;-99.44
0.00;-0.24;1.13;-17.08;1.38;-454.48;-4.52;-0.61;-113.53
0.01;-0.21;1.17;-20.60;-3.87;-497.93;-5.16;-0.70;-126.48
0.05;-0.20;1.13;-22.05;2.54;-497.93;-5.86;-0.65;-140.42
-0.01;-0.12;1.15;-25.10;3.17;-497.93;-7.07;-0.48;-164.82
0.13;0.02;1.13;-20.61;6.13;-497.93;-7.49;-0.43;-179.26
-0.08;-0.03;1.13;-21.59;2.07;-497.93;-7.94;-0.29;-192.70
-0.02;0.06;1.08;-17.50;7.38;-497.93;-8.17;-0.07;-205.65
0.19;-0.01;0.73;-20.44;6.17;-497.93;-8.58;-0.19;-219.59
-0.11;-0.05;1.15;-18.41;6.25;-497.93;-8.92;0.09;-232.53
-0.17;-0.02;1.12;-13.01;7.30;-434.23;-9.16;0.47;-245.99
-0.18;-0.04;1.19;-11.63;0.34;-291.64;-9.33;0.64;-254.16
-0.14;0.10;1.17;-9.83;-5.60;-177.65;-9.31;0.61;-258.78
-0.08;0.04;1.07;-4.05;-0.97;-98.83;-9.20;0.66;-261.55
-0.08;0.02;1.14;1.21;1.70;-44.03;-8.96;0.77;-262.74
-0.05;-0.01;1.11;-1.83;0.55;-18.37;-8.83;0.81;-263.21
0.03;-0.00;1.17;1.97;1.32;-4.78;-8.60;0.80;-263.35
-0.01;0.01;1.13;3.54;3.53;33.45;-8.33;0.89;-262.44
-0.02;0.00;1.14;3.48;4.63;55.36;-8.07;1.01;-261.00
0.04;-0.03;1.15;1.95;0.95;45.45;-7.87;0.99;-259.19
-0.04;-0.03;1.17;3.94;2.46;68.61;-7.63;1.08;-257.33
-0.07;0.02;1.12;3.50;1.49;126.61;-7.37;1.17;-254.04
-0.06;0.01;1.14;5.80;2.60;193.43;-7.06;1.28;-248.82
-0.05;-0.01;1.11;6.15;1.24;250.46;-6.77;1.34;-242.06
0.01;-0.02;1.14;3.19;-11.72;279.08;-6.57;0.99;-234.52
-0.01;0.01;1.12;7.65;1.70;292.18;-6.23;1.02;-226.63
-0.16;0.10;1.18;11.68;3.90;335.95;-5.70;1.25;-217.23
-0.11;-0.03;1.10;9.34;-0.80;378.62;-5.37;1.31;-207.38
0.03;-0.22;1.15;13.98;8.42;330.49;-5.05;1.52;-197.14
-0.04;-0.03;1.14;-1.24;-12.77;271.94;-5.01;1.19;-189.80
-0.14;0.05;1.17;10.78;-1.25;382.17;-4.59;1.26;-179.86
-0.21;-0.00;1.22;18.70;-1.08;461.29;-4.01;1.40;-167.40
0.26;-0.19;1.24;18.85;11.44;464.82;-3.57;1.47;-154.85
-0.23;-0.02;1.14;24.24;22.20;430.04;-2.90;2.23;-143.67
0.26;-0.24;1.04;3.89;-6.25;449.74;-2.94;1.78;-131.53
0.14;-0.20;1.25;4.32;-9.75;315.63;-2.94;1.39;-123.32
-0.18;0.03;1.16;12.47;10.57;340.82;-2.52;1.81;-114.12
0.04;-0.18;1.16;0.40;-15.60;339.84;-2.63;1.32;-104.95
0.17;-0.00;1.04;10.14;-3.95;346.23;-2.29;0.99;-94.56
0.06;0.08;1.16;13.98;4.66;360.84;-1.78;1.05;-84.46
0.06;-0.12;1.15;11.24;4.23;336.61;-1.56;1.09;-75.37
0.02;-0.10;1.16;8.18;-0.24;280.99;-1.42;1.04;-68.06
-0.00;-0.08;1.18;3.73;-7.54;244.71;-1.37;0.83;-61.45
0.14;-0.07;1.13;2.23;-4.09;179.77;-1.34;0.57;-56.60
0.09;-0.09;1.13;-0.34;-1.32;79.05;-1.41;0.44;-54.47
-0.00;-0.04;1.18;0.56;-0.74;13.40;-1.40;0.42;-54.10
0.11;-0.04;1.14;2.56;5.70;-26.11;-1.34;0.45;-54.78
-0.02;-0.02;1.16;-0.17;1.65;-43.74;-1.34;0.51;-56.14
-0.07;-0.03;1.17;1.95;3.76;-29.64;-1.28;0.67;-56.97
-0.04;-0.04;1.18;-1.16;-0.50;-33.50;-1.32;0.69;-57.84
-0.02;-0.01;1.15;1.27;0.86;-24.03;-1.27;0.71;-58.49
0.02;-0.01;1.14;-0.70;0.23;-16.92;-1.27;0.69;-58.95
0.02;-0.02;1.13;-1.89;-2.79;-22.98;-1.31;0.58;-59.54
0.04;-0.01;1.13;-1.05;-1.72;-12.00;-1.32;0.49;-59.88
0.05;-0.02;1.16;-2.55;-3.78;7.49;-1.38;0.33;-59.68
0.02;0.00;1.15;-2.27;-5.66;3.89;-1.41;0.16;-59.58
0.05;-0.04;1.12;-1.21;-0.50;-22.14;-1.45;0.10;-60.17
-0.05;-0.02;1.17;-1.42;-1.64;-42.63;-1.49;0.10;-61.49
-0.07;-0.01;1.15;-2.35;-2.32;-32.77;-1.53;0.11;-62.35
0.00;-0.01;1.13;-0.73;-0.65;-21.70;-1.52;0.08;-62.95
-0.02;-0.01;1.15;-0.72;-0.77;-20.57;-1.52;0.08;-63.51
0.02;-0.02;1.15;-0.90;-2.33;-17.67;-1.54;-0.01;-63.99
0.06;-0.03;1.15;0.05;0.58;-23.15;-1.53;-0.03;-65.19
0.01;-0.01;1.15;-2.15;-1.77;-37.48;-1.57;-0.09;-66.20
-0.02;0.01;1.08;-21.89;-35.19;1.23;-2.11;-0.99;-66.17
0.03;-0.03;1.15;-1.39;-4.16;-1.80;-2.12;-1.11;-66.22
0.03;-0.02;1.16;2.05;8.77;-43.93;-2.04;-0.85;-67.58
-0.07;0.01;1.13;-3.77;-5.28;-12.37;-2.09;-0.91;-67.92
0.02;-0.02;1.15;-1.88;-4.30;0.38;-2.12;-1.02;-67.91
0.03;-0.02;1.14;0.15;-0.44;0.17;-2.09;-1.04;-67.91
0.02;-0.01;1.14;-1.33;-2.45;1.22;-2.10;-1.10;-67.88
0.04;-0.03;1.15;-0.63;-2.15;9.29;-2.10;-1.17;-67.63
0.04;-0.03;1.14;0.20;-0.65;0.46;-2.08;-1.21;-67.62
0.03;-0.02;1.15;-0.52;-0.61;-0.26;-2.07;-1.22;-67.63
0.02;-0.02;1.15;2.75;8.78;-35.91;-1.98;-0.99;-68.60
0.11;-0.06;1.14;-1.62;-2.51;-31.29;-2.03;-1.14;-69.48
-0.00;-0.01;1.14;-1.56;-1.55;-37.41;-2.05;-1.17;-70.60
0.02;-0.03;1.16;-1.25;-0.59;-31.51;-2.07;-1.17;-71.45
0.00;-0.01;1.14;-1.34;-1.63;-19.30;-2.07;-1.20;-71.97
0.03;-0.04;1.14;-1.57;-4.32;-2.38;-2.11;-1.31;-72.03
0.03;-0.02;1.14;-0.64;0.86;-8.87;-2.10;-1.29;-72.27
0.03;-0.02;1.15;0.03;1.29;-16.54;-2.08;-1.26;-72.73
0.06;-0.08;1.13;-2.06;-0.15;-40.61;-2.17;-1.30;-73.79
0.03;-0.24;1.11;-3.07;7.52;-140.19;-2.45;-1.09;-77.72
-0.00;-0.19;1.18;-8.73;-2.45;-253.30;-2.80;-1.13;-84.30
0.06;-0.20;1.17;-13.88;-2.15;-363.27;-3.35;-1.22;-95.56
0.04;-0.21;1.17;-19.98;-8.07;-473.15;-4.03;-1.45;-108.81
0.01;-0.16;1.11;-23.22;0.51;-497.93;-4.70;-1.42;-121.76
-0.00;-0.08;1.18;-24.99;0.95;-497.93;-5.37;-1.36;-135.70
0.05;-0.04;1.14;-23.94;6.08;-497.93;-5.94;-1.22;-149.14
0.12;0.07;1.19;-21.77;5.00;-497.93;-6.33;-1.17;-162.59
-0.05;-0.07;1.16;-20.47;1.07;-497.93;-6.81;-1.07;-176.03
-0.10;-0.15;1.16;-17.27;4.26;-497.93;-7.29;-0.84;-189.97
0.00;-0.03;1.04;-16.06;4.37;-474.60;-7.58;-0.72;-202.31
-0.17;0.13;1.23;-13.37;4.89;-407.58;-7.85;-0.36;-218.62
-0.01;-0.03;1.08;-11.27;2.28;-339.41;-8.02;-0.28;-227.78
-0.01;-0.04;1.02;-10.93;1.87;-262.80;-8.19;-0.22;-234.87
-0.14;0.02;1.17;-7.05;-0.68;-184.09;-8.20;-0.09;-239.85
-0.09;0.02;1.15;-4.02;-2.13;-114.41;-8.12;-0.06;-242.93
-0.05;0.01;1.15;-1.79;-1.08;-50.67;-8.00;-0.04;-244.30
-0.01;0.02;1.14;0.12;-0.13;0.52;-7.82;-0.03;-244.29
0.05;-0.02;1.13;1.01;3.15;17.43;-7.66;0.01;-243.80
-0.10;0.00;1.14;2.85;2.92;45.59;-7.43;0.18;-242.62
-0.09;-0.01;1.17;3.44;0.39;83.02;-7.18;0.28;-240.04
-0.04;0.02;1.14;4.21;-0.99;114.99;-6.90;0.28;-236.94
-0.02;0.03;1.12;5.34;2.84;153.39;-6.59;0.37;-232.80
-0.00;0.01;1.16;7.42;0.94;198.55;-6.25;0.39;-227.43
-0.01;-0.01;1.10;7.95;3.84;225.43;-5.93;0.50;-221.35
-0.09;-0.05;1.16;7.91;-2.56;247.33;-5.65;0.51;-214.92
-0.05;-0.02;1.15;9.82;-1.11;299.84;-5.30;0.53;-206.82
0.04;0.03;1.05;15.15;10.89;404.85;-4.76;0.77;-195.89
-0.06;-0.08;1.20;14.89;-2.45;455.54;-4.36;0.74;-184.05
-0.08;-0.09;1.20;13.48;-3.63;474.70;-3.98;0.70;-170.76
0.00;-0.17;1.20;14.87;-0.79;456.20;-3.61;0.66;-156.61
-0.08;-0.11;1.11;14.52;-3.93;472.04;-3.28;0.62;-144.34
-0.21;-0.11;1.22;16.75;1.76;502.61;-2.84;0.84;-130.27
0.26;-0.22;1.05;18.55;15.01;477.13;-2.50;0.97;-117.86
0.10;-0.14;1.18;13.89;-4.62;465.16;-2.19;0.74;-104.84
0.18;-0.09;1.11;12.78;-0.99;399.84;-1.89;0.53;-94.04
0.16;0.02;1.09;9.11;-1.28;292.82;-1.36;0.30;-78.52
0.07;0.00;1.15;11.11;0.69;340.35;-1.03;0.24;-69.33
0.14;-0.11;1.10;8.87;-3.17;290.53;-0.88;0.02;-61.49
0.25;-0.08;1.14;5.50;-7.61;196.07;-0.77;-0.44;-55.61
0.18;-0.02;1.19;4.35;-5.19;133.28;-0.66;-0.74;-52.01
0.09;-0.04;1.14;1.98;-5.55;101.26;-0.63;-0.95;-49.37
0.02;-0.08;1.18;1.08;-1.37;54.24;-0.66;-0.99;-47.86
-0.09;-0.06;1.16;-1.95;-5.98;-7.80;-0.75;-1.03;-48.06
-0.00;-0.06;1.15;-1.62;-1.60;-48.49;-0.84;-1.05;-49.37
0.06;-0.05;1.15;-1.85;0.60;-62.64;-0.93;-1.07;-51.06
0.04;-0.02;1.18;-1.73;-1.54;-79.47;-0.97;-1.12;-53.13
-0.08;0.01;1.10;-2.96;0.16;-56.16;-1.02;-1.02;-54.70
0.03;-0.03;1.15;0.47;2.23;-23.22;-1.01;-0.96;-55.32
-0.01;-0.02;1.16;-1.57;-3.81;-12.40;-1.06;-1.05;-55.70
-0.00;0.00;1.13;-1.47;-4.30;0.71;-1.07;-1.14;-55.68
0.04;-0.03;1.14;-0.34;-0.96;-1.47;-1.09;-1.18;-55.72
0.04;-0.03;1.13;-0.03;-0.07;-2.87;-1.10;-1.20;-55.79
0.04;-0.03;1.13;0.52;3.41;-8.45;-1.09;-1.12;-56.02
0.03;-0.03;1.14;-0.00;0.77;-8.74;-1.10;-1.10;-56.25
0.01;-0.00;1.15;0.06;0.66;-4.57;-1.08;-1.07;-56.37
0.02;-0.02;1.14;0.38;1.00;0.13;-1.07;-1.05;-56.37
0.03;-0.02;1.15;0.78;2.69;-0.02;-1.05;-0.98;-56.37
0.02;-0.01;1.14;1.85;4.58;12.93;-0.98;-0.84;-55.97
0.04;-0.03;1.14;0.85;2.69;16.20;-0.97;-0.79;-55.52
0.02;-0.02;1.16;0.64;1.47;17.59;-0.95;-0.76;-55.06
0.04;-0.02;1.15;0.79;1.79;12.32;-0.94;-0.73;-54.73
0.03;-0.02;1.15;0.61;2.43;0.15;-0.92;-0.68;-54.72
0.02;-0.01;1.15;-0.17;-0.04;-0.40;-0.92;-0.68;-54.73
0.03;-0.03;1.14;-1.11;-2.06;-16.43;-0.96;-0.75;-55.18
0.06;-0.05;1.15;-1.45;0.45;-54.34;-1.02;-0.78;-56.64
0.11;-0.07;1.15;-3.36;-0.61;-103.82;-1.15;-0.89;-59.34
-0.00;-0.08;1.15;-6.41;0.22;-170.78;-1.38;-0.86;-64.13
0.04;-0.15;1.08;-10.03;-1.28;-247.45;-1.81;-0.92;-71.80
0.07;-0.09;1.16;-12.58;-3.14;-324.67;-2.18;-1.05;-80.24
0.14;-0.10;1.10;-15.05;2.02;-413.47;-2.65;-1.10;-91.81
0.17;-0.11;1.13;-17.82;3.39;-497.93;-3.15;-1.15;-104.76
0.03;-0.09;1.19;-20.61;1.58;-497.93;-3.72;-1.11;-118.20
0.14;-0.06;1.13;-20.66;7.23;-497.93;-4.27;-1.02;-132.15
-0.03;-0.08;1.23;-19.56;0.77;-497.93;-4.75;-0.96;-145.09
-0.08;-0.20;1.11;-18.73;2.51;-497.93;-5.35;-0.79;-159.03
-0.09;-0.16;1.13;-18.37;2.17;-497.93;-5.88;-0.64;-172.48
-0.08;-0.14;1.17;-15.82;3.88;-497.93;-6.36;-0.45;-187.42
-0.08;0.05;1.22;-9.51;20.28;-497.93;-6.44;0.18;-200.86
-0.07;-0.07;1.07;2.15;35.07;-450.89;-6.32;1.20;-213.49
-0.19;0.02;1.18;5.91;26.33;-383.79;-6.03;2.03;-223.46
-0.18;0.11;1.12;1.77;10.42;-271.42;-5.77;2.44;-231.06
-0.07;0.15;1.18;0.56;-1.87;-148.74;-5.50;2.40;-235.08
-0.08;0.10;1.17;-3.63;-3.66;-75.19;-5.39;2.33;-237.11
-0.14;0.04;1.19;-3.45;1.65;-33.76;-5.34;2.46;-238.02
-0.05;0.01;1.17;-0.40;-0.59;-8.31;-5.23;2.44;-238.24
0.00;-0.03;1.16;-1.37;-6.07;-0.08;-5.21;2.15;-238.24
0.04;-0.02;1.16;2.90;5.58;1.66;-5.05;2.21;-238.20
-0.03;0.01;1.16;6.73;11.44;15.49;-4.76;2.51;-237.76
-0.05;-0.01;1.14;0.81;0.71;44.62;-4.65;2.53;-236.60
0.05;-0.03;1.13;-1.01;-1.52;54.68;-4.61;2.40;-235.07
-0.02;-0.01;1.14;0.53;-0.54;57.16;-4.51;2.35;-233.53
0.01;0.05;1.15;-1.16;-3.81;79.11;-4.40;2.20;-231.47
-0.26;0.04;1.26;-20.56;-41.61;140.70;-5.33;0.26;-224.15
-0.07;-0.06;1.10;4.95;1.21;250.33;-5.15;0.36;-217.14
0.04;0.03;1.13;13.73;22.72;301.77;-4.65;0.91;-209.00
0.06;-0.08;1.16;-9.01;-28.35;256.32;-4.90;-0.00;-201.31
0.28;0.06;1.00;3.36;-18.15;304.38;-4.65;-0.80;-192.78
-0.13;0.04;1.18;14.26;7.00;335.72;-4.15;-0.47;-183.72
-0.05;0.01;1.16;12.67;-2.96;378.18;-3.72;-0.49;-173.51
-0.27;0.03;1.19;22.55;24.89;452.00;-3.03;0.44;-161.31
-0.66;-0.03;1.32;17.37;2.69;502.61;-2.51;1.02;-147.23
0.64;-0.16;1.10;10.11;-21.72;498.88;-2.31;-0.09;-134.26
-0.09;0.02;1.09;17.15;10.13;428.01;-1.77;0.29;-122.28
-0.08;-0.06;1.17;17.22;7.85;476.33;-1.34;0.56;-109.42
-0.10;-0.06;1.16;14.78;7.21;471.45;-0.93;0.86;-95.27
-0.01;-0.07;1.19;21.31;15.85;482.15;-0.39;1.28;-81.77
-0.01;-0.06;1.13;16.76;17.04;467.23;-0.00;1.72;-69.16
-0.00;-0.08;1.14;13.91;8.74;447.71;0.29;1.92;-57.07
0.01;-0.05;1.09;3.21;-4.51;408.44;0.32;1.76;-46.04
-0.01;-0.02;1.19;-0.46;-16.65;354.64;0.28;1.31;-36.82
0.11;-0.00;1.05;19.59;22.74;277.88;0.79;1.76;-29.32
0.20;-0.08;1.12;4.67;4.05;139.57;0.83;1.65;-25.55
-0.01;-0.01;1.11;1.48;-2.25;58.76;0.84;1.57;-23.96
-0.02;-0.08;1.19;2.06;-0.15;25.55;0.80;1.55;-23.27
0.01;-0.08;1.14;-0.21;1.55;-4.00;0.70;1.56;-23.40
0.04;-0.03;1.13;-0.82;0.81;-14.54;0.64;1.51;-23.78
-0.01;-0.06;1.16;0.44;1.33;-30.05;0.59;1.53;-24.62
-0.02;-0.04;1.13;-0.47;-2.65;-29.70;0.52;1.44;-25.42
0.01;-0.02;1.14;-1.33;-0.82;-43.10;0.46;1.38;-26.54
0.03;-0.03;1.18;-1.15;-0.71;-42.80;0.39;1.31;-27.69
-0.00;-0.01;1.15;-0.73;-0.12;-42.11;0.35;1.28;-28.79
0.05;-0.02;1.16;-0.56;-0.67;-58.84;0.31;1.20;-30.44
-0.05;-0.00;1.16;-1.54;-2.47;-64.92;0.25;1.16;-32.19
-0.03;-0.01;1.12;-2.08;-1.84;-45.91;0.18;1.11;-33.57
0.02;-0.02;1.14;-1.18;-1.81;-27.97;0.12;1.02;-34.35
-0.00;0.01;1.13;-1.13;0.95;-26.55;0.10;1.03;-35.07
0.03;-0.02;1.14;-1.77;-2.01;-33.71;0.04;0.92;-35.94
-0.07;0.00;1.12;-0.72;-1.06;-22.95;0.02;0.95;-36.59
-0.01;-0.02;1.16;0.40;-1.74;-13.77;0.01;0.89;-36.96
0.02;-0.02;1.14;-0.49;-0.74;-12.98;-0.02;0.83;-37.30
0.01;-0.01;1.14;-0.78;-0.01;-17.91;-0.05;0.81;-37.78
-0.02;-0.01;1.14;-0.72;-0.88;-12.22;-0.08;0.79;-38.11
-0.01;-0.01;1.16;-0.12;-0.58;-9.85;-0.09;0.77;-38.38
0.00;-0.01;1.14;0.20;0.05;-4.22;-0.10;0.75;-38.51
-0.00;-0.01;1.15;0.12;0.37;-2.60;-0.11;0.75;-38.58
0.02;-0.01;1.15;-0.31;0.65;-3.18;-0.13;0.74;-38.66
0.00;-0.01;1.15;0.06;0.36;-6.86;-0.14;0.73;-38.85
0.05;-0.02;1.14;-0.20;-0.59;-12.69;-0.16;0.65;-39.19
0.03;-0.03;1.14;-0.21;-1.54;-14.83;-0.19;0.56;-39.59
-0.02;-0.02;1.16;-0.37;-2.65;-11.33;-0.21;0.49;-39.91
0.01;-0.02;1.15;-0.98;-0.87;-10.80;-0.25;0.45;-40.19
-0.00;-0.00;1.14;-0.89;-2.01;-4.34;-0.27;0.39;-40.31
-0.00;-0.01;1.15;-0.82;-0.91;-2.67;-0.30;0.36;-40.38
0.01;-0.01;1.14;-0.18;-1.17;-2.34;-0.31;0.30;-40.45
0.01;-0.02;1.14;-0.20;-0.61;-3.51;-0.33;0.27;-40.55
0.03;-0.02;1.15;-0.34;-1.03;-9.99;-0.34;0.21;-40.82
0.01;-0.01;1.13;-0.52;0.20;-14.92;-0.36;0.20;-41.22
0.01;-0.01;1.14;-1.36;-0.27;-26.06;-0.40;0.18;-41.93
-0.00;-0.01;1.15;-0.67;-0.85;-19.82;-0.42;0.16;-42.44
0.02;-0.01;1.13;-2.60;-4.74;-4.72;-0.55;-0.10;-42.68
0.01;-0.02;1.16;-3.62;-6.29;-10.40;-0.66;-0.28;-42.97
0.01;-0.02;1.17;-4.50;-9.86;-9.61;-0.78;-0.55;-43.24
0.02;-0.01;1.14;-1.89;-6.27;-19.50;-0.83;-0.74;-43.83
-0.03;0.02;1.45;-7.63;-4.32;-16.16;-0.99;-0.82;-44.25
-0.00;0.01;1.14;-5.18;-8.79;-12.16;-1.10;-1.03;-44.58
0.07;-0.01;1.12;-1.01;-0.67;1.04;-1.12;-1.10;-44.55
0.01;-0.02;1.16;0.58;2.33;0.15;-1.10;-1.02;-44.54
-0.02;-0.01;1.18;-1.51;-8.07;0.75;-1.12;-1.21;-44.52
0.03;-0.02;1.14;0.15;-0.74;1.22;-1.12;-1.23;-44.49
0.02;-0.02;1.15;-1.01;-3.42;1.13;-1.14;-1.31;-44.46
0.02;-0.02;1.15;-1.10;-5.14;1.13;-1.17;-1.44;-44.43
0.02;-0.02;1.14;-2.49;-7.45;0.36;-1.23;-1.63;-44.42
0.02;-0.02;1.14;0.05;-1.45;-0.02;-1.22;-1.68;-44.42
0.02;-0.02;1.15;-0.58;-1.35;0.10;-1.23;-1.70;-44.42
0.03;-0.02;1.15;-0.64;-0.77;0.18;-1.25;-1.72;-44.41
0.03;-0.02;1.15;0.12;-0.44;0.21;-1.24;-1.72;-44.41
0.03;-0.03;1.15;0.38;-0.03;0.24;-1.23;-1.71;-44.40
0.00;0.00;1.15;0.31;1.81;2.58;-1.19;-1.63;-44.33
0.01;0.02;1.16;1.21;0.11;28.91;-1.12;-1.60;-43.58
-0.00;0.05;1.15;1.79;-2.82;67.16;-0.99;-1.64;-41.76
-0.01;0.04;1.17;7.08;-1.17;162.18;-0.75;-1.63;-37.39
-0.00;0.08;1.13;8.99;-1.00;229.63;-0.38;-1.63;-30.27
-0.08;0.24;1.12;13.11;-0.29;328.24;0.19;-1.53;-21.40
-0.07;0.16;1.18;16.63;-4.65;429.28;0.77;-1.56;-9.81
0.13;0.04;1.10;17.36;-4.25;446.85;1.26;-1.78;2.25
0.04;-0.10;1.16;19.13;-3.03;499.39;1.64;-1.86;15.73
0.04;-0.03;1.09;24.52;1.99;502.61;2.20;-1.81;28.80
-0.25;0.16;1.09;26.06;9.88;502.61;2.98;-1.29;42.37
-0.13;0.02;1.16;26.63;22.48;502.61;3.67;-0.52;56.45
0.40;-0.41;1.09;11.79;-23.72;502.61;3.58;-1.41;69.51
-0.07;0.06;1.22;22.73;14.91;467.59;4.19;-0.91;82.61
-0.11;0.13;1.12;24.26;27.75;448.39;4.93;0.02;96.06
-0.08;0.04;1.02;10.98;12.22;458.52;5.16;0.42;107.98
-0.05;-0.02;1.12;12.18;3.85;500.79;5.35;0.57;121.50
0.23;-0.13;1.28;0.09;-23.28;412.39;5.15;-0.27;133.05
0.09;-0.28;1.16;8.67;0.45;231.94;5.01;-0.32;139.08
-0.16;-0.14;1.18;3.16;2.94;148.10;4.88;-0.10;143.22
-0.16;-0.05;1.21;-0.92;-6.48;86.07;4.72;-0.12;145.46
-0.00;-0.06;1.10;6.93;9.55;48.64;4.74;0.14;146.78
-0.14;-0.01;1.19;-9.69;-21.87;23.14;4.38;-0.31;147.40
-0.01;-0.01;1.16;-3.01;-8.45;-5.67;4.21;-0.51;147.25
0.14;-0.10;1.14;-0.05;-7.77;-23.56;4.03;-0.86;146.52
0.04;-0.10;1.16;2.00;3.90;-77.50;3.91;-0.78;144.35
-0.01;-0.12;1.16;-3.21;2.39;-151.48;3.63;-0.69;140.41
-0.07;-0.14;1.14;-4.70;4.92;-229.76;3.30;-0.48;133.98
-0.18;-0.16;1.21;6.53;24.48;-256.31;3.27;0.33;127.06
0.35;-0.52;1.06;10.31;19.97;-293.33;3.08;0.60;119.14
-0.24;-0.12;1.24;6.55;14.57;-325.85;3.10;1.17;110.34
-0.29;-0.08;0.83;-7.51;17.07;-304.71;2.76;1.95;102.12
-0.08;-0.13;1.08;-23.60;-28.33;-349.76;1.95;1.24;92.67
0.27;-0.21;1.17;-18.31;-4.97;-497.93;1.19;0.84;77.24
0.05;-0.16;1.13;-6.37;20.62;-497.93;0.84;1.33;63.79
-0.27;0.09;1.14;-17.22;1.59;-497.93;0.44;1.59;50.35
-0.29;0.16;1.22;-39.39;-36.67;-497.93;-0.49;0.82;36.90
-0.12;0.00;1.11;-14.63;9.55;-497.93;-0.85;1.17;23.96
-0.51;0.15;1.08;-18.70;-5.05;-497.93;-1.22;1.46;10.51
-0.11;0.31;1.07;-3.33;-1.26;-85.42;-1.06;1.46;6.33
0.36;0.06;1.07;-12.43;-1.02;-206.84;-1.35;1.05;0.33
0.09;-0.09;1.19;-12.24;-14.87;-232.09;-1.71;0.56;-5.70
0.44;0.05;1.10;-4.29;10.49;-203.80;-1.76;0.43;-11.41
0.20;-0.00;1.14;-11.01;-2.91;-245.04;-2.05;0.13;-18.76
0.11;-0.03;1.13;-8.17;-5.40;-164.98;-2.24;-0.11;-23.05
0.10;0.02;1.14;-5.15;-0.82;-121.27;-2.31;-0.23;-26.45
0.02;0.03;1.13;-4.55;-1.02;-95.30;-2.36;-0.27;-29.02
-0.07;0.03;1.17;-2.23;2.20;-57.85;-2.34;-0.14;-30.52
-0.05;0.02;1.14;-1.30;0.60;-24.57;-2.31;-0.07;-31.19
-0.00;-0.01;1.15;-0.18;0.36;-6.54;-2.28;-0.05;-31.36
0.03;-0.03;1.14;-0.35;-1.05;-3.41;-2.27;-0.11;-31.46
0.03;-0.01;1.14;-0.09;-1.31;-0.77;-2.24;-0.17;-31.48
0.03;-0.02;1.15;-0.00;-0.10;0.23;-2.21;-0.19;-31.47
0.02;-0.02;1.15;-0.08;0.55;2.15;-2.19;-0.19;-31.41
-0.03;0.00;1.14;0.31;0.02;15.16;-2.13;-0.16;-31.00
0.02;-0.01;1.14;1.56;0.36;34.56;-2.06;-0.16;-30.07
-0.04;0.04;1.16;3.08;-1.19;79.43;-1.90;-0.15;-27.92
-0.03;0.08;1.15;5.83;-2.53;162.81;-1.64;-0.19;-23.53
-0.04;0.07;1.14;9.98;-1.77;285.75;-1.27;-0.20;-15.81
0.03;0.07;1.12;15.30;-4.18;409.28;-0.77;-0.33;-4.76
0.25;0.12;1.13;20.53;3.39;445.71;-0.11;-0.46;7.27
0.07;0.14;1.11;22.52;-2.85;502.61;0.60;-0.59;20.34
0.10;0.07;1.11;22.89;-3.66;502.61;1.34;-0.79;35.92
-0.11;0.06;1.25;25.10;-0.94;502.61;2.03;-0.70;49.49
-0.04;0.16;1.11;26.92;5.65;502.61;2.83;-0.50;62.56
0.02;-0.02;1.11;21.37;-1.58;502.61;3.32;-0.55;76.13
-0.05;-0.30;1.18;21.18;-6.56;502.61;3.54;-0.67;89.70
-0.06;-0.02;1.15;28.69;3.23;502.61;4.22;-0.52;103.27
-0.14;-0.06;1.17;27.44;-4.97;502.61;4.80;-0.51;116.84
-0.34;0.06;1.34;20.98;-1.31;502.61;5.30;-0.26;130.41
-0.39;0.08;1.22;19.05;-6.44;476.93;5.76;-0.09;143.29
0.04;-0.18;1.17;12.17;0.25;290.79;5.97;-0.12;155.21
-0.03;-0.20;1.13;7.19;0.68;179.97;5.84;-0.07;160.07
-0.02;-0.13;1.13;5.92;1.53;99.98;5.75;-0.01;162.77
-0.05;0.12;1.19;2.05;2.75;19.43;5.80;0.11;163.29
0.14;-0.13;1.13;0.03;0.52;-19.96;5.57;-0.01;162.75
0.09;-0.20;1.15;-4.84;-5.06;-83.99;5.15;-0.22;160.49
0.02;-0.09;1.11;-8.99;2.43;-175.36;4.72;-0.17;155.75
-0.04;-0.04;1.08;-10.20;0.23;-235.01;4.31;-0.12;149.17
-0.11;-0.04;1.20;-10.24;4.66;-253.27;3.92;0.10;142.59
0.07;-0.23;1.20;-10.40;3.96;-304.67;3.35;0.14;134.06
0.01;-0.04;1.16;-8.27;22.58;-410.98;3.00;0.81;121.31
-0.39;0.12;1.22;27.02;67.81;-471.04;3.71;2.85;109.07
-0.01;0.09;1.25;-9.16;-1.02;-487.07;3.46;2.77;95.43
-0.15;-0.03;1.20;-13.69;-7.06;-497.93;3.01;2.67;82.48
-0.30;-0.01;1.11;-26.43;-29.86;-430.03;2.22;2.09;70.44
-0.11;-0.15;1.21;-41.40;-41.74;-356.20;0.95;1.04;60.83
0.06;-0.00;1.20;-20.72;-4.67;-472.00;0.38;0.84;48.08
0.05;-0.00;1.09;-23.66;1.29;-497.93;-0.26;0.81;34.64
-0.02;0.02;1.14;-21.50;2.94;-497.93;-0.82;0.89;20.70
-0.13;0.11;1.11;-23.39;-5.25;-497.93;-1.39;0.84;5.76
-0.34;0.21;1.18;-17.76;0.14;-477.29;-1.67;1.10;-7.13
0.17;-0.02;1.04;-14.05;5.88;-382.80;-2.05;1.06;-17.85
0.07;0.09;1.05;-16.27;1.96;-388.28;-2.33;1.02;-27.94
0.07;0.11;1.14;-12.03;-0.51;-296.40;-2.51;0.93;-36.24
0.01;0.03;1.15;-9.91;-0.25;-231.33;-2.68;0.89;-42.26
0.04;0.00;1.15;-4.12;-2.00;-80.05;-2.84;0.73;-46.42
-0.01;0.11;1.15;-0.95;-0.42;-32.28;-2.70;0.72;-47.32
0.03;0.00;1.14;-0.11;0.19;-9.18;-2.65;0.67;-47.57
0.02;-0.01;1.16;0.03;0.20;-0.11;-2.60;0.65;-47.57
0.03;-0.02;1.15;0.56;1.09;-0.14;-2.55;0.64;-47.58
0.04;-0.02;1.15;0.75;0.26;0.15;-2.50;0.59;-47.57
-0.10;0.06;1.16;1.79;1.68;42.67;-2.35;0.71;-46.42
-0.03;0.06;1.13;4.21;-0.39;114.84;-2.13;0.72;-43.44
0.06;0.11;1.14;7.92;-2.15;214.55;-1.78;0.59;-37.64
0.05;0.09;1.15;13.18;-3.57;347.34;-1.32;0.45;-28.61
-0.00;0.10;1.10;19.98;-4.51;495.88;-0.64;0.32;-14.73
-0.25;0.09;1.21;25.95;-4.35;502.61;0.12;0.41;-1.16
-0.28;0.30;1.20;25.73;-4.58;502.61;1.00;0.50;11.91
0.09;-0.25;1.18;26.02;-4.06;502.61;1.45;0.31;25.48
-0.18;0.10;1.26;25.80;-2.68;502.61;2.29;0.37;41.06
-0.22;0.14;1.16;26.47;-0.61;502.61;3.03;0.54;54.13
-0.04;-0.08;1.17;25.37;-2.19;502.61;3.57;0.51;67.70
-0.04;-0.21;1.15;26.56;9.17;502.61;4.00;0.77;81.27
-0.29;0.14;1.18;24.84;2.39;502.61;4.66;1.07;94.34
0.03;-0.17;1.09;12.58;-13.45;495.74;4.74;0.65;108.22
0.19;-0.22;1.19;14.70;5.82;357.69;4.85;0.64;117.88
-0.14;0.07;1.20;14.84;8.19;295.22;5.20;0.97;125.85
-0.27;0.23;1.14;7.22;-16.93;297.80;5.47;0.72;133.89
-0.12;-0.13;1.21;11.11;-2.54;308.67;5.53;0.74;141.91
0.03;-0.14;1.19;9.65;-3.52;251.07;5.58;0.60;149.45
0.08;-0.21;1.17;7.92;-0.13;180.01;5.48;0.52;154.31
-0.10;-0.12;1.16;6.46;4.78;97.45;5.43;0.73;156.84
0.02;-0.08;1.19;-1.98;-11.66;13.55;5.20;0.38;157.22
0.15;-0.08;1.09;-7.48;-14.10;-58.63;4.83;-0.15;155.64
0.09;-0.01;1.18;-4.53;0.25;-80.14;4.60;-0.23;153.47
0.18;-0.31;1.20;-4.27;-5.37;-133.16;4.14;-0.50;149.88
0.04;-0.24;1.20;-8.85;11.21;-272.83;3.60;-0.21;142.24
-0.16;-0.08;1.15;-5.57;23.47;-332.63;3.31;0.54;133.59
0.29;-0.14;1.05;-16.23;-5.48;-428.03;2.63;0.09;120.32
-0.10;-0.14;1.12;-12.05;16.00;-497.93;2.11;0.61;106.38
-0.36;-0.13;1.19;-6.69;15.56;-497.93;1.80;1.30;93.43
-0.19;-0.06;1.19;-12.23;-2.30;-447.22;1.39;1.38;80.91
-0.07;-0.16;1.09;-21.07;-11.00;-462.69;0.65;1.12;68.42
-0.31;-0.22;1.18;-24.98;-6.19;-497.93;-0.19;1.19;54.97
-0.06;-0.01;1.17;-16.67;2.20;-497.93;-0.64;1.28;41.53
0.01;0.09;1.10;-18.66;2.66;-497.93;-1.03;1.31;28.09
-0.26;-0.00;1.12;-15.40;1.13;-491.12;-1.42;1.58;14.83
-0.00;-0.01;1.13;-22.60;-8.47;-497.93;-2.08;1.29;-0.61
-0.56;0.21;1.18;-21.57;-0.87;-437.22;-2.47;1.68;-12.42
-0.09;0.41;1.22;-8.09;5.94;-288.29;-2.29;1.87;-20.20
0.95;-0.22;1.19;20.46;55.97;-385.58;-1.82;2.63;-30.61
0.18;0.04;0.54;-86.29;-27.08;-409.54;-3.93;1.54;-41.26
-0.02;-0.09;0.92;-9.60;20.19;-371.42;-4.22;2.06;-51.29
-0.32;-0.05;1.08;-7.13;6.69;-193.68;-4.37;2.52;-56.71
0.03;0.08;1.14;-9.83;-1.86;-147.19;-4.45;2.39;-60.54
0.14;0.06;1.13;-4.34;-3.00;-65.97;-4.43;2.13;-62.38
0.01;0.17;1.17;-1.51;1.04;-38.41;-4.22;2.11;-63.42
-0.08;0.05;1.14;-0.87;-2.53;-7.99;-4.12;2.04;-63.73
-0.01;-0.00;1.13;0.56;1.36;18.44;-4.03;2.04;-63.23
0.03;-0.03;1.14;1.66;-1.35;31.07;-3.94;1.94;-62.40
-0.01;0.00;1.15;0.40;-0.65;9.31;-3.85;1.89;-62.14
0.03;-0.02;1.15;-0.47;-0.53;0.36;-3.80;1.81;-62.13
0.06;0.03;1.13;1.59;-1.35;62.81;-3.62;1.65;-58.87
0.07;0.05;1.15;4.92;-1.29;120.15;-3.36;1.52;-55.38
-0.05;-0.01;1.16;6.09;-1.34;144.56;-3.14;1.50;-51.48
-0.03;-0.03;1.15;4.64;-0.21;113.80;-2.98;1.49;-48.41
-0.02;-0.03;1.18;3.47;-2.30;95.81;-2.85;1.42;-45.82
0.06;-0.03;1.09;2.06;1.07;59.05;-2.76;1.36;-43.99
-0.01;-0.03;1.17;1.71;0.77;37.45;-2.69;1.36;-42.98
0.05;-0.02;1.12;1.82;-0.13;46.81;-2.61;1.27;-41.72
0.01;-0.04;1.16;0.38;0.83;22.90;-2.59;1.26;-41.12
0.06;-0.05;1.14;0.09;2.33;11.00;-2.58;1.25;-40.81
0.06;-0.03;1.12;-1.07;0.92;2.49;-2.59;1.19;-40.75
0.02;-0.02;1.16;-0.14;-1.35;-0.22;-2.56;1.11;-40.75
0.03;-0.02;1.14;-0.17;-0.36;-0.43;-2.54;1.05;-40.76
0.04;-0.02;1.15;-0.00;0.23;-0.08;-2.51;1.00;-40.77
0.03;-0.02;1.15;0.20;0.04;0.10;-2.47;0.96;-40.76
0.03;-0.02;1.15;-0.12;-0.15;0.18;-2.45;0.90;-40.76
0.03;-0.03;1.15;-0.18;-0.47;-0.35;-2.43;0.85;-40.77
0.03;-0.02;1.15;0.34;-0.22;-0.06;-2.40;0.79;-40.77
0.03;-0.03;1.15;0.08;-0.19;-0.31;-2.37;0.74;-40.78
0.03;-0.02;1.14;0.38;0.13;0.04;-2.34;0.70;-40.78
0.02;-0.02;1.15;0.26;0.08;-0.17;-2.30;0.66;-40.78
0.02;-0.02;1.15;-0.17;-0.36;-0.26;-2.28;0.61;-40.79
0.03;-0.02;1.15;0.41;-0.10;0.61;-2.24;0.57;-40.77
0.04;-0.03;1.12;0.18;1.09;-0.20;-2.22;0.55;-40.78
0.05;-0.03;1.11;0.08;1.42;0.24;-2.20;0.53;-40.77
0.03;-0.01;1.16;-0.21;-1.25;-0.14;-2.17;0.46;-40.77
0.03;-0.02;1.14;0.21;1.78;-0.23;-2.14;0.47;-40.78
0.02;-0.02;1.15;0.05;0.91;0.27;-2.12;0.46;-40.77
0.03;-0.02;1.14;-0.23;-0.30;-0.05;-2.11;0.41;-40.77
0.03;-0.02;1.15;0.12;0.14;0.32;-2.08;0.38;-40.77
0.03;-0.02;1.16;0.14;-1.57;0.03;-2.05;0.31;-40.76
0.02;-0.02;1.15;-0.55;-2.90;-0.16;-2.04;0.21;-40.77
0.04;-0.02;1.14;1.02;0.92;2.55;-2.00;0.19;-40.70
0.04;-0.02;1.15;1.31;3.56;1.23;-1.95;0.24;-40.67
0.02;-0.02;1.15;0.70;1.67;-0.22;-1.91;0.26;-40.67
0.03;-0.02;1.14;1.07;2.65;0.10;-1.86;0.29;-40.67
0.03;-0.02;1.16;0.05;-0.80;0.88;-1.84;0.24;-40.65
0.03;-0.03;1.15;1.02;1.35;3.71;-1.80;0.25;-40.55
0.04;-0.02;1.14;1.25;2.86;2.44;-1.76;0.28;-40.48
0.02;-0.02;1.15;0.14;-0.87;0.70;-1.74;0.23;-40.46
0.03;-0.03;1.13;0.90;1.78;1.31;-1.70;0.25;-40.43
-0.00;-0.01;1.14;-0.35;-1.72;6.18;-1.69;0.20;-40.26
0.05;-0.03;1.14;0.14;0.40;7.13;-1.68;0.16;-40.07
0.03;-0.02;1.13;-0.21;0.08;2.79;-1.67;0.13;-39.99
