ACCX;ACCY;ACCZ;GYROX;GYROY;GYROZ;ANGLX;ANGLY;ANGLZ
0.03;-0.02;1.14;-0.07;-0.01;0.05;-0.54;-0.10;0.39
0.03;-0.03;1.15;-0.09;-0.24;-0.28;-0.55;-0.13;0.38
0.03;-0.02;1.15;0.46;-0.09;0.05;-0.55;-0.16;0.38
0.03;-0.03;1.14;-0.10;-0.32;0.01;-0.57;-0.19;0.38
0.03;-0.02;1.13;-0.09;0.07;-0.12;-0.58;-0.21;0.38
0.03;-0.02;1.15;-0.01;0.10;-0.31;-0.59;-0.23;0.37
0.02;-0.02;1.15;0.04;-0.48;0.21;-0.59;-0.26;0.37
0.03;-0.02;1.14;-0.16;0.14;-0.15;-0.61;-0.28;0.37
0.03;-0.02;1.15;-0.06;0.25;0.37;-0.62;-0.30;0.38
0.03;-0.02;1.15;0.14;0.36;-0.18;-0.62;-0.32;0.38
0.02;-0.02;1.14;0.23;0.33;0.25;-0.62;-0.32;0.38
0.03;-0.03;1.15;0.16;0.22;-0.27;-0.63;-0.34;0.38
0.03;-0.02;1.15;0.01;-0.04;-0.21;-0.64;-0.36;0.37
0.03;-0.03;1.14;0.07;0.23;0.10;-0.65;-0.38;0.37
0.02;-0.02;1.15;0.02;0.02;-0.01;-0.65;-0.39;0.37
0.02;-0.03;1.15;-0.15;-0.45;0.14;-0.67;-0.42;0.38
0.02;-0.02;1.15;-0.15;-0.19;0.24;-0.68;-0.44;0.38
0.03;-0.02;1.15;0.30;0.11;-0.21;-0.68;-0.45;0.38
0.02;-0.03;1.14;-0.19;0.33;0.28;-0.70;-0.46;0.38
0.02;-0.02;1.14;0.08;0.22;0.21;-0.71;-0.46;0.39
0.03;-0.02;1.14;0.05;0.55;0.04;-0.71;-0.46;0.39
0.03;-0.02;1.13;0.01;-0.09;0.21;-0.72;-0.48;0.40
0.03;-0.02;1.16;-0.22;0.00;0.10;-0.73;-0.50;0.40
0.02;-0.03;1.14;-0.09;-0.13;0.05;-0.74;-0.51;0.40
0.02;-0.03;1.16;-0.22;-0.27;-0.02;-0.76;-0.53;0.40
0.02;-0.02;1.14;-0.13;-0.01;-0.04;-0.77;-0.55;0.40
0.03;-0.02;1.15;-0.36;-0.01;0.13;-0.78;-0.56;0.40
0.03;-0.03;1.15;-0.27;-0.24;0.22;-0.80;-0.59;0.41
0.02;-0.02;1.14;0.23;0.11;0.46;-0.80;-0.59;0.42
0.03;-0.02;1.16;0.02;0.17;0.19;-0.80;-0.61;0.42
0.02;-0.02;1.15;-0.18;0.19;0.08;-0.81;-0.61;0.42
0.03;-0.02;1.15;-0.24;0.05;-0.07;-0.83;-0.62;0.42
0.03;-0.02;1.14;0.13;-0.12;-0.13;-0.82;-0.64;0.42
0.02;-0.03;1.15;0.37;2.02;-0.16;-0.82;-0.60;0.42
0.03;-0.03;1.15;0.11;1.99;-0.05;-0.83;-0.57;0.41
0.03;-0.02;1.15;-0.39;-0.65;-0.04;-0.84;-0.61;0.41
0.03;-0.03;1.15;0.04;-0.07;-0.09;-0.85;-0.63;0.41
0.03;-0.03;1.15;-0.06;0.02;-0.25;-0.86;-0.64;0.40
0.03;-0.02;1.15;-0.21;-0.18;-0.05;-0.87;-0.65;0.40
0.01;-0.02;1.17;0.11;1.53;-0.13;-0.87;-0.61;0.40
0.01;-0.03;1.15;0.28;-0.45;-0.28;-0.87;-0.63;0.39
0.03;-0.03;1.13;0.01;0.20;-0.07;-0.88;-0.64;0.39
0.04;-0.03;1.13;-0.16;0.02;0.25;-0.89;-0.66;0.40
0.03;-0.03;1.15;-0.18;-0.16;0.07;-0.90;-0.68;0.40
0.02;-0.02;1.14;-0.01;0.49;-0.10;-0.91;-0.68;0.40
0.03;-0.02;1.14;-0.12;-0.42;-0.04;-0.92;-0.70;0.40
0.02;-0.03;1.14;-0.28;0.03;0.22;-0.93;-0.71;0.40
0.03;-0.03;1.15;-0.15;0.11;0.16;-0.94;-0.71;0.40
0.02;-0.02;1.14;0.25;-0.55;-0.02;-0.93;-0.75;0.40
0.03;-0.02;1.14;-0.03;-0.16;0.19;-0.94;-0.76;0.41
0.03;-0.02;1.15;-0.01;0.19;0.10;-0.94;-0.77;0.41
0.03;-0.03;1.14;-0.04;0.03;-0.38;-0.95;-0.78;0.40
0.03;-0.02;1.15;0.31;-0.33;0.27;-0.94;-0.80;0.41
0.02;-0.02;1.15;0.25;0.20;-0.09;-0.93;-0.80;0.41
0.03;-0.03;1.14;-0.09;0.72;0.25;-0.94;-0.80;0.41
0.02;-0.02;1.14;-0.25;-0.12;0.21;-0.95;-0.81;0.42
0.03;-0.02;1.14;0.71;0.97;0.50;-0.94;-0.79;0.43
0.03;-0.02;1.15;1.10;-1.55;27.52;-0.91;-0.84;1.12
0.02;-0.04;1.13;0.13;-3.38;11.00;-0.93;-0.93;1.38
0.03;-0.03;1.14;0.34;0.65;0.33;-0.93;-0.92;1.39
0.02;-0.02;1.13;-0.38;-0.91;0.01;-0.94;-0.95;1.39
0.03;0.06;1.13;-0.15;-1.90;1.03;-0.87;-1.01;1.41
0.01;0.17;1.16;0.49;1.58;4.95;-0.68;-0.96;1.54
-0.06;0.29;1.15;-0.10;-0.59;0.14;-0.40;-0.91;1.54
-0.06;0.52;1.17;0.71;-2.51;14.50;0.08;-0.91;1.89
0.03;0.39;1.18;2.46;1.10;44.07;0.49;-0.88;2.99
0.35;0.37;1.02;1.50;-0.56;21.75;0.82;-1.16;3.51
-0.05;0.39;1.15;3.62;-2.80;44.27;1.25;-1.17;4.62
0.05;0.37;1.12;2.02;-0.18;38.75;1.62;-1.19;5.55
0.05;0.24;1.16;1.35;2.72;-1.21;1.85;-1.14;5.52
-0.04;0.19;1.13;2.57;3.71;-1.78;2.06;-1.00;5.48
-0.09;0.14;1.17;1.82;0.08;32.25;2.19;-0.90;6.38
0.03;-0.03;1.20;4.37;1.84;60.60;2.23;-0.87;7.90
0.14;-0.08;1.15;3.15;4.40;59.82;2.18;-0.87;9.27
0.10;-0.13;1.20;2.26;1.85;24.86;2.08;-0.90;9.87
0.12;-0.25;1.20;0.30;-0.74;-29.21;1.84;-0.99;9.17
0.08;-0.27;1.09;-3.72;-2.35;-89.98;1.45;-1.09;6.92
-0.02;-0.20;1.13;-2.38;0.14;-80.04;1.17;-1.05;5.00
-0.07;-0.30;1.16;-1.32;1.27;-57.72;0.84;-0.95;3.55
-0.09;-0.28;1.11;-3.06;2.91;-58.67;0.49;-0.78;2.09
-0.15;-0.25;1.12;-1.64;-0.09;-12.88;0.22;-0.65;1.78
0.01;-0.24;1.08;3.88;-1.71;74.34;0.10;-0.70;4.60
0.03;-0.30;1.24;4.65;0.43;92.17;-0.04;-0.70;7.09
0.10;-0.27;1.13;1.56;-1.20;34.54;-0.25;-0.80;7.99
0.05;-0.21;1.10;-2.50;5.91;-30.44;-0.52;-0.66;7.17
0.07;-0.21;1.09;-0.48;3.53;-9.84;-0.73;-0.61;6.89
0.04;-0.20;1.12;-0.74;1.30;-19.50;-0.93;-0.60;6.39
-0.03;-0.21;1.15;-1.55;-1.48;-27.41;-1.15;-0.60;5.65
0.01;-0.02;1.16;0.14;0.29;0.08;-1.14;-0.59;5.65
0.03;-0.02;1.14;-0.15;-0.36;-0.39;-1.14;-0.61;5.64
0.02;-0.02;1.14;-0.04;0.28;-0.09;-1.14;-0.61;5.64
0.02;-0.02;1.13;0.33;0.13;0.08;-1.13;-0.62;5.64
0.03;-0.02;1.14;0.28;0.36;0.21;-1.11;-0.63;5.64
0.02;-0.02;1.15;0.17;0.95;0.17;-1.10;-0.61;5.65
0.02;-0.02;1.15;0.22;1.56;-0.27;-1.09;-0.58;5.64
0.02;-0.02;1.15;0.75;2.68;0.17;-1.07;-0.52;5.65
0.03;-0.09;1.15;0.52;-0.35;13.21;-1.12;-0.54;6.00
0.03;-0.01;1.14;1.04;-3.81;27.27;-1.08;-0.66;6.71
0.02;0.00;1.15;-0.93;-2.04;-3.02;-1.08;-0.72;6.63
0.02;-0.03;1.15;-0.51;0.26;-10.85;-1.10;-0.72;6.33
0.01;-0.14;1.14;-0.99;-0.53;-16.47;-1.24;-0.73;5.90
0.04;-0.18;1.11;-1.72;-0.62;-16.30;-1.44;-0.77;5.39
0.01;-0.26;1.09;-0.06;1.21;-18.85;-1.68;-0.73;4.90
0.04;-0.24;1.14;-0.91;-1.58;-17.70;-1.90;-0.79;4.43
0.12;-0.22;1.10;0.07;2.19;0.62;-2.07;-0.82;4.44
0.06;-0.28;1.17;0.62;-2.74;13.56;-2.27;-0.92;4.80
-0.06;-0.18;1.18;-0.50;2.78;-3.52;-2.42;-0.71;4.61
-0.07;-0.11;1.11;0.25;-3.13;17.56;-2.47;-0.71;5.07
-0.01;-0.21;1.10;1.23;1.01;42.46;-2.61;-0.66;6.21
0.04;-0.22;1.10;1.29;1.99;41.78;-2.74;-0.63;7.30
-0.02;-0.23;1.14;-0.36;4.97;32.71;-2.92;-0.47;8.21
-0.03;-0.19;1.27;-0.09;-0.70;19.40;-3.03;-0.46;8.80
0.07;-0.18;1.09;1.00;3.71;31.90;-3.12;-0.41;9.66
0.06;-0.27;1.21;-0.76;0.78;28.63;-3.32;-0.43;10.43
0.08;-0.22;1.13;-1.66;0.60;-24.10;-3.51;-0.47;9.78
-0.02;-0.24;1.17;-1.99;-4.44;-35.26;-3.71;-0.56;8.86
-0.08;-0.07;1.21;-3.41;-0.61;-3.08;-3.79;-0.49;8.78
-0.00;-0.06;1.19;0.86;3.97;15.41;-3.75;-0.37;9.19
0.04;-0.06;1.21;-0.99;-2.68;17.75;-3.75;-0.47;9.65
0.14;0.06;1.07;-2.70;1.04;4.08;-3.69;-0.58;9.76
0.11;0.22;1.21;-2.24;2.43;-35.67;-3.48;-0.59;8.80
0.04;0.39;1.08;-4.96;-4.07;-66.27;-3.17;-0.72;6.88
-0.23;0.40;1.30;-3.49;3.45;-52.19;-2.90;-0.46;5.47
0.11;0.28;0.97;-3.00;1.29;-56.36;-2.63;-0.52;4.01
-0.01;0.29;1.18;-2.45;1.24;-53.14;-2.37;-0.46;2.57
-0.04;0.18;1.18;-1.78;1.94;-36.88;-2.20;-0.37;1.54
-0.01;0.26;1.13;-1.17;-1.17;-3.50;-1.93;-0.39;1.45
-0.02;0.34;1.15;-0.91;3.36;-5.12;-1.59;-0.27;1.31
-0.03;0.28;1.19;-0.07;0.54;-26.71;-1.31;-0.23;0.59
0.07;0.20;1.08;-1.34;2.20;-31.57;-1.12;-0.24;-0.23
0.03;0.21;1.17;-1.48;-4.56;-23.69;-0.94;-0.38;-0.87
-0.01;0.15;1.15;-0.38;1.62;-5.67;-0.78;-0.31;-1.05
0.03;-0.02;1.14;0.40;0.48;-0.09;-0.78;-0.33;-1.05
0.03;-0.02;1.15;-0.09;-0.48;0.37;-0.79;-0.36;-1.04
0.03;-0.02;1.14;0.14;0.55;-0.22;-0.79;-0.36;-1.05
0.03;-0.03;1.15;-0.33;0.20;0.14;-0.81;-0.37;-1.04
0.02;-0.02;1.14;0.01;0.71;-0.21;-0.82;-0.37;-1.05
0.02;-0.03;1.13;0.02;-0.50;-0.42;-0.83;-0.39;-1.06
0.02;-0.03;1.15;-0.24;-0.29;0.21;-0.85;-0.42;-1.05
0.03;-0.02;1.15;0.04;0.05;0.04;-0.85;-0.43;-1.05
0.03;-0.03;1.14;0.33;0.03;-0.04;-0.86;-0.45;-1.05
0.03;-0.02;1.15;0.22;-0.09;0.14;-0.86;-0.47;-1.05
0.02;-0.03;1.14;0.08;0.40;0.37;-0.87;-0.47;-1.04
0.02;-0.02;1.15;-0.41;-0.06;-0.10;-0.88;-0.48;-1.04
0.02;-0.02;1.14;0.01;0.48;-0.07;-0.89;-0.48;-1.04
0.03;-0.02;1.15;-0.18;-0.41;-0.02;-0.90;-0.51;-1.04
0.03;-0.03;1.14;-0.03;0.10;0.39;-0.90;-0.52;-1.03
0.03;-0.02;1.15;-0.04;-0.24;-0.05;-0.91;-0.55;-1.04
0.03;-0.02;1.14;0.28;0.08;-0.28;-0.91;-0.56;-1.04
0.03;-0.02;1.15;-0.07;0.00;0.17;-0.91;-0.58;-1.04
0.03;-0.03;1.15;0.08;-0.12;-0.05;-0.92;-0.60;-1.04
0.03;-0.02;1.13;-0.04;0.08;-0.02;-0.92;-0.62;-1.04
0.02;-0.03;1.15;0.33;0.75;-0.12;-0.92;-0.61;-1.04
0.02;-0.03;1.14;-0.01;0.33;-0.18;-0.93;-0.61;-1.05
0.03;-0.02;1.15;0.59;0.26;0.21;-0.92;-0.62;-1.04
0.03;0.16;1.15;-0.70;-2.48;3.00;-0.77;-0.70;-0.96
0.01;0.24;1.11;0.45;1.71;20.91;-0.50;-0.65;-0.40
-0.03;0.30;1.18;0.74;5.39;8.42;-0.19;-0.47;-0.17
0.01;0.45;1.15;-0.51;2.60;-18.10;0.22;-0.40;-0.66
0.01;0.38;1.16;1.58;9.21;-29.35;0.61;-0.16;-1.42
0.00;0.51;1.15;-1.16;3.84;-15.70;1.05;-0.06;-1.82
1.16;0.24;0.64;0.81;15.84;-26.67;1.22;-0.45;-2.96
-0.08;0.37;1.16;-0.68;-5.05;-22.65;1.49;-0.63;-4.12
0.02;0.37;1.14;0.97;-19.08;7.11;1.84;-1.18;-3.91
-0.00;0.26;1.12;3.15;-4.94;40.95;2.15;-1.28;-2.81
-0.07;0.06;1.13;3.00;-2.48;74.86;2.24;-1.25;-0.86
0.01;-0.05;1.12;5.79;-2.03;111.82;2.30;-1.28;2.16
0.10;-0.11;1.08;5.24;1.53;94.42;2.27;-1.31;4.62
0.02;-0.18;1.21;3.56;-0.38;46.92;2.15;-1.31;5.88
-0.01;-0.38;1.18;3.50;-3.31;45.76;1.85;-1.37;7.16
-0.08;-0.40;1.15;2.39;-3.45;68.05;1.52;-1.36;8.93
-0.09;-0.38;1.04;1.38;1.74;31.98;1.16;-1.22;9.92
-0.09;-0.36;1.19;2.74;-0.93;47.20;0.89;-1.15;11.20
0.03;-0.47;1.17;4.42;1.33;96.86;0.55;-1.11;13.72
0.08;-0.56;1.16;4.69;-5.31;103.44;0.18;-1.29;16.51
0.02;-0.52;1.12;1.39;2.51;19.50;-0.28;-1.20;17.06
-0.02;-0.36;1.12;0.10;0.31;-8.16;-0.62;-1.16;16.84
-0.04;-0.31;1.20;1.09;4.86;3.01;-0.86;-0.98;16.92
0.05;-0.28;1.07;0.65;5.94;8.08;-1.11;-0.85;17.13
0.00;-0.24;1.19;0.92;3.55;-9.63;-1.29;-0.74;16.88
0.01;-0.17;1.14;-0.47;-1.86;-12.21;-1.44;-0.78;16.55
0.02;-0.02;1.15;-0.88;-2.38;-0.09;-1.46;-0.86;16.54
0.02;-0.02;1.15;0.02;-0.80;-0.10;-1.45;-0.88;16.54
0.03;-0.02;1.15;-0.30;-0.26;-0.34;-1.44;-0.90;16.53
0.02;-0.02;1.13;-0.03;-0.21;-0.22;-1.44;-0.91;16.52
0.02;-0.03;1.15;-0.38;-0.82;-3.72;-1.45;-0.93;16.42
0.02;-0.03;1.14;-0.73;0.10;-23.11;-1.47;-0.93;15.78
0.02;-0.01;1.14;-0.51;0.34;-13.40;-1.46;-0.93;15.43
0.02;-0.02;1.15;-0.06;1.09;-10.71;-1.45;-0.90;15.14
0.03;-0.01;1.14;-0.04;1.41;-4.85;-1.44;-0.87;15.00
0.02;-0.02;1.14;-0.61;-0.64;-0.65;-1.45;-0.89;14.99
0.02;-0.02;1.15;-0.19;-0.24;0.02;-1.45;-0.91;14.99
0.03;-0.02;1.15;0.01;0.19;0.01;-1.44;-0.91;14.99
0.02;-0.01;1.14;0.14;0.13;-0.01;-1.42;-0.91;14.99
0.02;-0.02;1.14;-0.12;-0.21;0.11;-1.42;-0.92;14.99
0.02;-0.02;1.15;-0.27;-0.42;-10.82;-1.42;-0.93;14.71
0.02;-0.02;1.14;-0.80;0.37;-10.88;-1.43;-0.92;14.41
0.02;-0.03;1.15;-0.88;-2.07;-19.93;-1.46;-0.98;13.86
0.03;-0.01;1.15;-0.39;1.36;-21.63;-1.45;-0.95;13.29
0.02;-0.02;1.15;0.33;0.86;-2.70;-1.43;-0.93;13.22
0.02;-0.02;1.15;-0.10;-0.44;-4.89;-1.42;-0.95;13.07
0.03;-0.02;1.15;-0.01;0.42;-2.53;-1.42;-0.95;13.00
0.02;-0.02;1.15;-0.06;0.20;-0.82;-1.40;-0.95;12.98
0.02;-0.02;1.13;-0.06;0.36;-1.64;-1.40;-0.93;12.94
0.03;-0.01;1.15;-0.18;0.36;-2.60;-1.39;-0.93;12.87
0.02;-0.02;1.15;-0.15;0.22;-0.15;-1.38;-0.93;12.87
0.02;-0.02;1.15;0.08;0.48;-0.31;-1.37;-0.92;12.86
0.03;-0.02;1.16;-0.12;0.49;0.14;-1.36;-0.92;12.86
0.03;-0.01;1.14;-0.12;0.17;0.01;-1.34;-0.93;12.86
0.02;-0.02;1.15;-0.16;0.22;0.16;-1.34;-0.92;12.87
0.02;-0.02;1.14;-0.13;0.52;0.01;-1.34;-0.91;12.87
0.02;-0.02;1.15;-0.01;0.22;-0.10;-1.34;-0.90;12.86
0.03;-0.01;1.15;0.46;-0.39;-0.05;-1.31;-0.92;12.86
0.02;-0.02;1.15;-0.22;-0.19;-0.53;-1.31;-0.93;12.85
0.02;-0.02;1.14;0.05;0.05;-0.22;-1.31;-0.93;12.84
0.02;-0.02;1.14;0.33;0.13;0.02;-1.29;-0.92;12.84
0.03;-0.01;1.15;-0.22;0.14;0.17;-1.29;-0.93;12.85
0.02;-0.02;1.15;0.13;0.03;0.14;-1.28;-0.93;12.85
0.03;-0.02;1.15;0.13;0.17;0.24;-1.27;-0.94;12.86
0.03;-0.02;1.14;-0.19;0.45;0.02;-1.27;-0.93;12.86
0.02;-0.02;1.14;-0.57;0.07;-0.18;-1.29;-0.93;12.85
0.03;-0.03;1.15;0.13;0.20;-0.01;-1.28;-0.94;12.85
0.02;-0.02;1.14;-0.19;0.20;-0.13;-1.29;-0.93;12.84
0.03;-0.01;1.15;0.30;0.10;-0.13;-1.26;-0.94;12.84
0.03;-0.02;1.15;0.04;-0.29;-0.10;-1.25;-0.96;12.84
0.03;-0.02;1.14;-0.09;-0.12;-0.27;-1.25;-0.97;12.83
0.02;-0.02;1.15;-0.09;0.22;-0.22;-1.25;-0.96;12.82
0.02;-0.02;1.15;0.28;-0.01;-0.16;-1.24;-0.96;12.82
0.02;-0.02;1.13;0.54;-0.10;0.13;-1.22;-0.97;12.82
0.02;-0.02;1.14;0.05;0.49;-0.54;-1.21;-0.95;12.81
0.03;-0.02;1.14;0.08;0.13;-0.18;-1.20;-0.95;12.80
0.02;-0.02;1.14;-0.12;0.28;-0.10;-1.20;-0.95;12.80
0.02;-0.02;1.15;-0.18;-0.24;0.24;-1.20;-0.96;12.81
0.02;-0.02;1.15;0.17;-0.12;-0.05;-1.19;-0.96;12.81
0.02;-0.02;1.14;-0.18;0.03;-0.04;-1.19;-0.96;12.81
0.03;-0.03;1.15;0.01;0.17;0.21;-1.19;-0.96;12.81
0.03;-0.02;1.15;0.62;0.98;-0.18;-1.17;-0.95;12.81
0.02;-0.02;1.15;0.68;3.64;0.08;-1.15;-0.85;12.81
0.02;-0.02;1.14;0.66;4.20;0.13;-1.13;-0.74;12.81
0.02;-0.02;1.15;1.01;5.74;0.22;-1.10;-0.59;12.82
-0.01;-0.03;1.14;0.05;1.12;15.95;-1.11;-0.53;13.46
-0.01;-0.07;1.15;0.49;-3.71;24.74;-1.14;-0.61;14.12
-0.03;-0.19;1.18;0.43;-3.17;29.17;-1.28;-0.66;14.88
0.03;-0.21;1.14;1.06;-1.00;26.14;-1.43;-0.70;15.59
-0.02;-0.30;1.17;0.02;-1.49;0.79;-1.69;-0.71;15.61
-0.06;-0.32;1.18;-0.03;-0.41;-0.59;-1.94;-0.66;15.59
-0.08;-0.38;1.20;-0.10;4.46;13.21;-2.24;-0.47;15.95
-0.04;-0.42;1.14;0.16;0.57;28.28;-2.58;-0.41;16.71
-0.04;-0.49;1.13;1.07;-0.26;32.95;-2.96;-0.38;17.60
-0.02;-0.55;1.16;1.72;-1.77;50.16;-3.35;-0.41;18.96
0.11;-0.62;1.14;0.59;-4.71;50.69;-3.79;-0.61;20.48
0.04;-0.50;1.13;-1.54;2.80;6.11;-4.23;-0.55;20.65
-0.16;-0.39;1.31;-3.37;-1.20;-23.55;-4.53;-0.47;20.01
-0.24;-0.17;1.15;-2.56;5.68;-17.12;-4.64;-0.10;19.57
-0.21;-0.11;1.27;-0.01;1.07;43.82;-4.64;0.10;20.80
0.16;-0.25;1.19;-0.80;-1.16;73.15;-4.78;-0.06;22.77
0.24;-0.03;1.03;-3.69;-14.44;-25.31;-4.80;-0.68;22.11
0.07;0.26;1.22;-1.95;8.40;-105.03;-4.53;-0.49;19.17
0.24;0.36;1.25;-4.32;-1.74;-149.43;-4.28;-0.70;15.29
-0.23;0.61;1.30;-4.10;-10.04;-103.96;-3.88;-0.85;12.06
-0.07;0.56;1.05;-2.85;-25.20;-45.98;-3.35;-1.45;10.82
-0.07;0.48;1.18;0.01;-6.88;9.09;-2.86;-1.55;11.06
0.09;0.44;1.16;-3.52;-8.15;-7.64;-2.51;-1.80;10.85
0.16;0.36;1.12;-1.67;0.39;-50.16;-2.19;-1.88;9.50
0.03;0.30;1.16;-2.22;2.28;-65.43;-1.92;-1.81;7.80
-0.01;0.30;1.13;-1.11;5.68;-64.71;-1.61;-1.61;6.05
-0.02;0.28;1.09;-1.84;3.03;-51.08;-1.34;-1.48;4.67
0.00;0.16;1.13;-0.77;-1.80;-30.02;-1.18;-1.50;3.89
0.07;0.12;1.11;-0.90;-2.59;-32.85;-1.06;-1.60;3.00
0.03;0.04;1.14;-0.50;0.39;-20.91;-1.01;-1.58;2.35
0.03;-0.01;1.14;-0.71;-1.84;-7.46;-1.01;-1.62;2.16
0.03;-0.04;1.14;0.16;0.31;-0.15;-1.02;-1.61;2.16
0.02;-0.02;1.14;-0.01;0.14;-0.21;-1.02;-1.60;2.15
0.02;-0.03;1.14;0.01;-0.59;-0.31;-1.03;-1.61;2.14
0.03;-0.03;1.15;-0.36;-0.03;-0.10;-1.05;-1.61;2.14
0.02;-0.03;1.14;0.51;0.22;-0.13;-1.04;-1.59;2.14
0.02;-0.02;1.15;0.01;-0.74;0.37;-1.04;-1.59;2.15
0.02;-0.02;1.14;-0.22;-0.88;-0.22;-1.05;-1.61;2.14
0.03;-0.03;1.14;0.04;-0.29;-0.33;-1.05;-1.62;2.12
0.02;-0.03;1.16;0.26;1.13;-0.27;-1.05;-1.57;2.12
0.02;-0.03;1.15;0.43;0.02;0.30;-1.05;-1.56;2.12
0.02;-0.02;1.15;-0.01;-1.42;-0.10;-1.04;-1.59;2.12
0.02;-0.03;1.15;0.04;-0.38;-0.09;-1.05;-1.59;2.12
0.03;-0.02;1.14;0.13;1.47;0.11;-1.05;-1.54;2.12
0.02;-0.02;1.14;0.05;1.38;-0.02;-1.05;-1.50;2.12
0.02;-0.02;1.15;0.43;2.28;0.01;-1.04;-1.43;2.12
0.02;-0.03;1.14;0.71;2.43;0.04;-1.03;-1.35;2.12
0.02;-0.02;1.15;0.33;2.23;0.04;-1.02;-1.29;2.12
0.02;-0.02;1.15;0.42;0.26;0.28;-1.01;-1.28;2.13
0.03;-0.02;1.15;0.10;-1.87;0.04;-1.01;-1.33;2.13
0.12;0.35;1.13;1.70;1.44;-4.34;-0.63;-1.35;2.00
0.23;1.09;1.07;-1.37;1.20;-24.92;0.15;-1.42;1.35
0.22;0.60;1.11;0.57;5.68;-58.25;0.65;-1.38;-0.22
-0.25;0.70;1.16;0.28;13.59;-108.39;1.17;-0.84;-3.15
-0.33;0.39;1.18;1.88;6.77;-46.50;1.48;-0.40;-4.41
-0.13;0.13;1.14;-0.59;-9.49;72.98;1.56;-0.53;-2.44
-0.03;-0.18;1.12;-0.30;-11.58;80.19;1.34;-0.79;-0.35
-0.03;-0.82;1.14;1.07;-2.94;17.70;0.64;-0.84;0.13
-0.10;-1.22;1.19;-3.26;-23.87;45.23;-0.33;-1.43;1.39
0.40;-1.82;1.10;2.57;-5.86;78.17;-1.27;-1.71;3.43
0.11;-1.22;1.13;-2.33;1.62;-35.57;-2.19;-1.69;2.54
0.17;-0.91;1.12;-1.72;2.74;-80.18;-2.90;-1.68;0.45
0.08;-0.24;1.01;-4.42;16.33;-99.57;-3.21;-1.28;-2.34
0.10;0.15;0.94;-1.69;23.64;-92.73;-3.03;-0.73;-4.84
0.08;0.31;1.14;-3.75;1.61;-66.53;-2.78;-0.74;-6.57
-0.06;0.54;1.12;-3.75;-6.67;-47.26;-2.33;-0.86;-7.89
-0.11;0.57;1.06;-0.77;4.08;-43.09;-1.79;-0.66;-9.06
-0.15;0.43;1.19;-1.96;10.63;-52.36;-1.44;-0.27;-10.42
-0.24;0.27;1.17;1.23;3.56;-0.74;-1.16;0.02;-10.44
0.06;-0.03;1.11;-0.27;-2.48;-0.36;-1.17;-0.12;-10.45
0.00;-0.04;1.18;-1.95;-6.13;0.40;-1.24;-0.28;-10.44
0.04;-0.12;1.14;-1.09;-5.75;6.63;-1.36;-0.46;-10.26
0.03;-0.00;1.13;0.10;-1.00;8.22;-1.33;-0.50;-10.04
0.02;0.05;1.16;-0.33;0.14;1.47;-1.27;-0.51;-10.00
0.02;-0.02;1.15;-0.06;-0.38;0.08;-1.27;-0.53;-10.00
0.01;-0.02;1.16;0.68;1.55;6.04;-1.24;-0.49;-9.83
0.04;-0.03;1.13;0.28;-1.14;18.19;-1.23;-0.55;-9.34
0.03;-0.02;1.16;0.54;-2.96;16.11;-1.22;-0.64;-8.91
0.02;-0.02;1.15;1.04;1.27;6.72;-1.18;-0.62;-8.73
0.01;0.02;1.13;0.43;-1.52;25.06;-1.12;-0.67;-7.73
0.01;0.01;1.14;1.39;0.71;30.04;-1.06;-0.65;-6.92
0.02;-0.01;1.13;0.98;0.83;36.22;-1.02;-0.64;-5.98
0.04;-0.04;1.13;0.91;-0.94;37.17;-1.02;-0.69;-4.97
0.02;-0.02;1.17;1.32;0.45;39.35;-0.98;-0.68;-3.91
0.06;-0.05;1.15;1.27;-1.11;31.70;-0.97;-0.75;-3.09
0.02;-0.04;1.16;0.55;-0.36;22.95;-0.97;-0.77;-2.47
0.04;-0.04;1.14;1.21;-0.10;18.36;-0.96;-0.79;-1.97
0.01;0.01;1.13;0.34;0.13;17.29;-0.91;-0.78;-1.52
0.03;-0.02;1.13;0.52;-0.74;17.40;-0.90;-0.81;-1.05
0.00;0.03;1.18;0.97;0.86;8.88;-0.83;-0.77;-0.78
-0.04;0.18;1.16;0.49;0.74;0.43;-0.63;-0.70;-0.77
-0.03;0.44;1.10;0.95;12.69;-11.92;-0.16;-0.32;-1.10
-0.11;0.88;1.20;1.64;0.20;7.47;0.56;-0.25;-0.90
-0.02;0.94;1.11;2.77;0.17;40.07;1.42;-0.23;0.18
0.00;0.90;1.19;6.45;-38.99;111.70;2.30;-1.25;3.19
-0.06;0.70;1.16;5.23;4.68;93.44;3.11;-0.97;7.77
-0.07;-0.25;1.17;2.71;-4.06;66.46;2.93;-1.07;10.70
-0.12;-0.76;1.18;2.39;1.94;68.16;2.34;-0.92;12.54
-0.04;-1.46;1.16;2.19;4.29;78.71;1.33;-0.78;14.58
0.25;-1.81;1.15;-0.68;-7.49;55.47;0.24;-1.09;16.30
-0.14;-1.39;1.07;-3.29;6.17;-9.84;-0.83;-0.84;16.04
-0.24;-1.65;1.21;0.68;0.08;-84.59;-1.77;-0.72;13.84
-0.14;-0.63;0.66;1.00;1.35;-131.34;-2.47;-0.55;10.16
0.55;-0.40;-0.03;-2.62;16.62;-102.45;-3.24;-1.23;7.50
-0.33;0.31;1.48;-1.14;-10.51;-39.44;-3.02;-1.29;6.39
-0.05;0.49;1.17;-3.34;3.44;-90.91;-2.61;-1.14;3.94
0.15;0.57;1.03;-4.85;4.62;-125.57;-2.16;-1.10;0.67
-0.50;0.87;1.36;-0.01;12.63;-47.34;-1.62;-0.48;-0.65
-0.09;0.22;1.20;1.79;-16.68;19.59;-1.34;-0.85;-0.12
0.11;0.17;1.13;0.08;-0.55;8.94;-1.16;-0.94;0.14
0.09;0.10;1.04;-0.62;4.65;-3.43;-1.05;-0.90;0.05
0.08;0.06;1.12;0.33;-0.04;-1.40;-0.96;-0.95;0.01
0.05;-0.02;1.14;-0.01;1.20;0.56;-0.97;-0.96;0.03
0.01;-0.01;1.16;0.48;2.48;0.08;-0.95;-0.88;0.03
0.03;-0.03;1.12;0.10;-1.61;9.56;-0.95;-0.93;0.28
0.03;-0.02;1.13;0.08;-0.59;5.47;-0.95;-0.96;0.43
0.03;-0.03;1.14;0.31;-0.30;2.34;-0.95;-0.98;0.49
0.03;-0.02;1.15;0.04;0.49;1.32;-0.95;-0.98;0.52
0.02;-0.02;1.14;0.08;-0.26;1.46;-0.95;-0.99;0.56
0.02;-0.00;1.14;-0.32;-0.93;6.11;-0.94;-1.01;0.75
0.02;-0.02;1.15;-0.53;-1.11;9.44;-0.96;-1.05;1.00
0.02;-0.00;1.15;0.17;-0.68;7.91;-0.94;-1.07;1.22
0.02;0.01;1.15;0.19;0.62;5.01;-0.90;-1.05;1.35
-0.04;0.15;1.15;1.20;2.23;18.37;-0.71;-0.94;1.83
-0.01;0.10;1.13;-0.01;-3.22;22.45;-0.60;-1.00;2.44
-0.06;0.13;1.11;-0.04;0.63;6.08;-0.46;-0.91;2.59
-0.12;0.26;1.11;-1.72;5.94;-7.46;-0.25;-0.64;2.39
-0.01;0.29;0.98;0.92;2.29;-1.90;0.11;-0.56;2.34
0.09;0.47;1.10;0.10;-0.32;10.46;0.54;-0.62;2.61
-0.16;0.85;1.33;-6.85;34.19;41.14;0.92;0.48;3.85
-0.02;0.88;1.25;8.71;-2.44;87.61;1.82;0.42;6.21
-0.01;0.73;1.35;6.19;-12.45;112.02;2.51;0.10;9.12
0.08;0.61;1.18;4.16;-3.06;60.98;3.08;-0.04;10.77
0.13;-0.05;1.15;0.78;-5.52;27.44;3.00;-0.30;11.51
0.13;-0.83;1.17;2.89;-5.34;47.27;2.36;-0.51;12.74
0.15;-1.69;1.14;0.92;-4.21;36.02;1.28;-0.67;13.71
-0.31;-1.73;1.18;-0.93;2.22;-48.39;0.25;-0.48;12.46
-0.09;-0.52;1.09;-2.50;6.95;-4.62;-0.30;-0.22;12.33
-0.43;-1.72;1.13;-0.65;2.55;-34.73;-1.27;0.02;11.39
-0.05;-0.91;1.17;6.10;-7.49;141.14;-1.80;-0.18;15.63
0.01;-0.79;1.24;2.02;-3.75;15.96;-2.36;-0.28;16.06
0.27;-0.24;1.06;-2.53;-2.82;-13.52;-2.59;-0.58;15.69
0.07;0.30;1.07;-1.48;10.02;-44.33;-2.28;-0.36;14.50
-0.05;0.76;1.23;-2.16;-0.41;-8.65;-1.68;-0.34;14.26
-0.10;0.80;1.14;1.87;4.39;2.62;-0.94;-0.16;14.33
-0.03;0.63;1.22;-0.12;-3.55;33.24;-0.39;-0.22;15.20
0.15;0.67;1.08;-0.38;4.80;-1.54;0.18;-0.19;15.16
-0.07;0.54;1.16;-0.42;3.44;-27.25;0.64;-0.05;14.42
-0.01;0.02;1.15;2.16;0.84;-2.54;0.70;-0.01;14.35
-0.00;0.04;1.15;1.47;3.97;9.66;0.77;0.11;14.64
0.05;-0.05;1.13;0.66;2.80;17.03;0.73;0.13;15.08
0.06;-0.04;1.14;0.55;2.00;11.85;0.69;0.12;15.40
0.04;-0.05;1.15;-0.62;0.39;2.42;0.60;0.09;15.47
0.03;-0.04;1.14;-0.68;-1.11;-1.98;0.52;0.01;15.37
0.02;-0.03;1.15;-0.22;-0.77;-2.15;0.47;-0.03;15.31
0.01;-0.02;1.16;-0.10;-1.05;-0.04;0.44;-0.07;15.31
0.03;-0.03;1.15;-0.35;1.71;-0.15;0.40;-0.05;15.31
0.03;-0.01;1.14;0.11;0.13;-0.18;0.38;-0.07;15.30
0.02;-0.03;1.14;-0.01;-0.30;-0.30;0.34;-0.10;15.29
0.03;-0.03;1.13;0.22;0.23;-0.18;0.32;-0.12;15.29
0.04;0.04;1.15;-0.48;-0.35;-5.28;0.34;-0.16;15.14
0.02;0.07;1.18;-1.40;0.11;-17.31;0.37;-0.18;14.69
0.01;0.08;1.13;-0.53;1.03;-23.69;0.43;-0.16;14.05
0.04;0.06;1.10;-0.56;-1.05;-12.68;0.47;-0.22;13.71
0.05;0.02;1.12;0.25;1.12;-4.68;0.49;-0.24;13.59
0.06;0.08;1.08;-0.42;1.71;-1.67;0.54;-0.24;13.54
0.04;0.10;1.15;0.11;0.03;-3.76;0.63;-0.28;13.44
0.03;0.16;1.18;-0.85;1.76;-11.06;0.74;-0.25;13.14
0.06;0.19;1.10;0.01;1.52;-14.57;0.91;-0.26;12.74
0.06;0.26;1.12;0.04;0.86;-10.13;1.14;-0.28;12.44
0.04;0.27;1.18;-0.77;3.42;-10.85;1.34;-0.22;12.14
0.02;0.31;1.17;0.43;0.23;-10.77;1.62;-0.22;11.85
0.00;0.24;1.11;0.25;1.56;6.60;1.83;-0.18;12.02
0.02;0.10;1.21;1.36;-2.06;21.21;1.93;-0.24;12.59
0.15;-0.04;1.12;0.13;0.23;1.50;1.86;-0.38;12.63
0.06;-0.15;1.15;-0.86;2.86;-25.03;1.66;-0.35;11.98
-0.04;-0.21;1.17;-0.97;0.68;-37.67;1.40;-0.29;10.97
-0.13;-0.20;1.18;0.72;1.10;-15.47;1.21;-0.15;10.56
-0.02;-0.20;1.12;1.33;1.44;16.62;1.02;-0.09;11.01
0.06;-0.18;1.17;1.72;0.37;30.19;0.88;-0.13;11.83
0.12;-0.20;1.13;0.46;4.42;15.17;0.69;-0.10;12.28
0.08;-0.11;1.14;0.37;2.60;-4.15;0.58;-0.11;12.17
-0.07;-0.05;1.20;-0.71;3.23;-19.32;0.51;0.05;11.65
-0.08;-0.05;1.24;-0.86;0.39;-14.94;0.43;0.13;11.25
0.02;-0.11;1.14;2.36;-4.68;16.54;0.37;-0.01;11.69
0.10;-0.16;1.12;1.56;-1.46;22.79;0.26;-0.14;12.31
0.03;-0.41;1.13;0.83;-0.59;17.75;-0.12;-0.18;12.79
-0.01;-0.06;1.14;0.52;-4.47;39.84;-0.16;-0.29;13.86
0.10;-0.39;1.13;1.17;-0.84;26.82;-0.49;-0.37;14.56
0.04;-0.02;1.15;-0.03;0.48;0.19;-0.50;-0.39;14.56
0.01;-0.02;1.17;0.04;-0.10;0.16;-0.51;-0.40;14.57
0.03;-0.02;1.13;0.20;1.59;-0.15;-0.51;-0.38;14.57
-0.00;0.10;1.16;-1.06;-0.13;-24.28;-0.43;-0.38;13.91
0.03;0.00;1.15;-1.57;-0.18;-36.24;-0.46;-0.40;12.93
0.01;-0.07;1.17;-0.62;0.62;-30.89;-0.54;-0.39;12.10
0.03;-0.06;1.14;0.51;1.85;-2.44;-0.57;-0.36;12.03
0.03;0.03;1.15;0.33;-1.34;3.85;-0.53;-0.42;12.14
0.02;0.04;1.16;0.54;0.31;6.59;-0.46;-0.42;12.31
0.02;-0.07;1.13;-0.61;2.66;3.82;-0.54;-0.37;12.42
0.01;-0.05;1.16;0.37;1.81;-3.18;-0.56;-0.32;12.33
0.02;-0.03;1.14;0.78;1.79;1.53;-0.56;-0.28;12.38
0.02;-0.03;1.15;0.37;0.91;1.43;-0.57;-0.27;12.41
0.03;-0.02;1.14;0.66;2.10;0.25;-0.56;-0.24;12.42
0.02;-0.01;1.15;0.74;0.39;1.58;-0.55;-0.24;12.46
0.03;-0.02;1.14;0.51;0.14;0.45;-0.54;-0.26;12.47
0.02;-0.02;1.14;0.48;0.19;0.19;-0.54;-0.27;12.48
0.02;-0.02;1.14;0.07;-0.29;-0.39;-0.55;-0.29;12.47
0.01;-0.02;1.14;-0.03;-0.36;0.42;-0.56;-0.31;12.48
0.02;-0.02;1.15;0.45;2.14;-0.15;-0.55;-0.27;12.48
0.02;-0.01;1.15;1.24;4.13;0.04;-0.53;-0.18;12.48
-0.12;-0.22;1.13;2.40;4.42;29.26;-0.65;0.06;13.36
-0.03;-0.83;1.18;1.73;1.27;5.00;-1.24;0.13;13.61
-0.24;-1.04;1.15;-0.13;3.09;-14.01;-1.95;0.33;13.25
-0.40;-1.27;1.14;1.52;6.92;38.86;-2.66;0.70;14.30
-0.28;-1.29;1.21;2.78;1.12;59.03;-3.35;0.84;15.95
-0.23;-1.29;2.00;11.87;-0.62;-11.00;-3.58;0.89;15.66
-0.00;-0.79;1.29;-7.43;-7.61;-8.01;-4.34;0.67;15.45
0.22;-0.37;1.13;-5.00;-11.57;-85.03;-4.69;0.19;13.15
0.08;0.49;1.15;-7.98;5.53;-110.54;-4.37;0.27;10.28
-0.11;0.92;1.20;-7.23;-4.51;-86.04;-3.78;0.20;7.87
-0.07;0.88;1.03;-4.13;12.13;-80.15;-3.03;0.52;5.94
-0.39;0.85;1.15;-1.69;4.83;-5.87;-2.44;0.86;5.78
-0.24;1.00;1.24;-2.28;-11.74;49.50;-1.77;0.66;7.12
0.32;0.84;1.03;-0.21;-4.13;84.19;-1.10;0.34;9.39
0.36;0.56;1.13;-0.50;-9.72;59.79;-0.68;-0.16;11.01
0.14;0.45;1.14;-1.46;1.18;-45.55;-0.32;-0.23;9.78
-0.02;0.45;1.14;-1.72;3.58;-82.16;0.07;-0.12;7.64
-0.17;0.33;1.27;-1.69;-7.14;-37.63;0.29;-0.18;6.63
-0.02;0.18;1.22;-0.86;-2.45;-9.58;0.42;-0.23;6.37
0.17;0.09;1.05;-2.65;14.91;11.03;0.42;0.04;6.70
0.03;0.06;1.17;-2.86;-15.55;19.73;0.39;-0.40;7.23
0.00;0.03;1.14;-2.28;-10.44;-0.47;0.35;-0.66;7.22
-0.05;0.16;1.15;-2.28;-9.09;-0.05;0.43;-0.84;7.22
0.03;-0.02;1.14;-1.45;-5.86;-0.04;0.37;-1.00;7.22
0.03;-0.03;1.14;0.26;0.03;0.04;0.34;-1.01;7.22
0.02;-0.03;1.14;-0.64;-5.60;-4.41;0.28;-1.16;7.10
-0.03;-0.08;1.17;-6.42;-1.57;-158.77;0.03;-1.15;2.81
0.06;0.24;1.14;-5.58;0.14;-119.63;0.12;-1.18;-0.30
-0.03;0.25;1.16;0.05;-1.08;-1.29;0.35;-1.16;-0.33
-0.03;0.04;1.13;0.30;1.27;-7.00;0.39;-1.07;-0.52
0.01;-0.05;1.14;0.59;2.39;5.56;0.36;-0.96;-0.31
0.01;-0.12;1.17;2.22;-2.88;55.61;0.30;-1.03;1.20
0.09;-0.03;1.13;2.78;1.24;58.83;0.34;-1.07;2.78
0.13;-0.07;1.11;1.61;3.74;23.93;0.31;-1.08;3.41
0.03;0.02;1.14;0.20;2.51;0.07;0.32;-1.02;3.41
-0.04;0.06;1.18;0.08;0.89;8.46;0.37;-0.94;3.64
-0.02;0.04;1.15;0.94;0.89;21.49;0.43;-0.88;4.20
0.02;0.03;1.16;1.21;4.40;10.40;0.48;-0.77;4.48
0.05;0.03;1.17;-0.47;1.18;-8.86;0.49;-0.77;4.24
0.06;0.02;1.13;1.15;-1.13;-7.26;0.52;-0.84;4.05
0.02;-0.04;1.14;-0.71;-2.77;-9.52;0.45;-0.93;3.75
0.01;-0.13;1.15;0.16;1.23;-8.09;0.32;-0.89;3.54
-0.05;-0.03;1.18;0.30;-4.15;21.69;0.29;-0.94;4.13
0.02;-0.08;1.14;1.41;-2.19;28.30;0.24;-0.99;4.92
0.10;-0.18;1.18;-0.19;-1.92;1.18;0.08;-1.11;4.95
0.03;-0.14;1.17;-0.65;-1.35;-11.81;-0.08;-1.15;4.63
0.01;-0.10;1.15;-0.32;0.26;-10.30;-0.18;-1.12;4.36
0.00;-0.13;1.16;-0.41;2.02;-2.16;-0.32;-1.05;4.30
0.01;-0.06;1.15;-0.10;1.29;0.42;-0.37;-1.00;4.31
0.02;-0.02;1.14;0.11;4.52;-0.27;-0.38;-0.89;4.30
0.02;-0.02;1.15;-0.18;1.84;0.01;-0.41;-0.84;4.30
0.03;-0.02;1.13;-0.28;-1.46;-0.36;-0.43;-0.88;4.29
0.02;-0.02;1.15;0.02;0.11;-12.33;-0.44;-0.88;3.96
0.03;-0.02;1.16;0.14;-0.79;-6.82;-0.45;-0.91;3.78
0.02;-0.02;1.14;0.08;-0.12;-9.38;-0.45;-0.92;3.53
0.03;-0.02;1.14;-0.13;-1.55;-2.91;-0.47;-0.97;3.45
0.03;-0.03;1.13;-0.33;0.89;0.39;-0.50;-0.96;3.46
0.02;-0.02;1.16;0.49;-2.19;0.11;-0.49;-1.02;3.47
0.10;0.31;1.17;-0.32;-7.34;0.05;-0.22;-1.27;3.47
0.07;0.49;1.04;-0.56;-1.35;-10.89;0.23;-1.37;2.90
0.10;0.54;1.12;0.07;2.11;2.22;0.70;-1.35;2.97
0.22;0.65;1.10;0.10;-2.18;0.30;1.21;-1.52;2.98
0.59;0.82;0.82;-0.39;-3.08;-47.17;1.78;-1.96;1.71
0.19;1.06;1.07;-0.77;6.07;-42.82;2.52;-1.87;0.60
-0.01;0.75;0.98;1.49;6.05;-49.17;3.26;-1.66;-0.73
-0.23;0.43;1.11;5.20;5.00;45.35;3.68;-1.33;0.49
-0.29;-0.03;1.35;8.05;-10.26;167.59;3.80;-1.33;5.02
0.13;-0.10;1.16;6.88;-2.56;145.06;3.82;-1.49;8.93
-0.02;-0.44;1.18;5.91;1.26;63.14;3.50;-1.41;10.64
-0.20;-0.74;1.13;3.10;3.10;58.65;2.93;-1.19;12.22
-0.02;-0.93;1.13;2.98;4.31;55.33;2.18;-1.02;13.94
0.10;-0.91;1.13;1.97;1.62;16.63;1.45;-1.01;14.37
-0.01;-0.82;1.22;-1.12;0.57;-55.43;0.72;-0.97;12.87
-0.11;-0.62;1.15;-2.85;0.26;-99.18;0.10;-0.87;10.10
-0.08;-0.51;1.11;-2.10;2.65;-67.40;-0.42;-0.73;8.34
-0.04;-0.43;1.15;-0.45;0.89;-24.68;-0.82;-0.67;7.68
0.05;-0.26;1.17;-0.22;0.83;4.28;-1.05;-0.67;7.79
0.02;-0.03;1.15;-0.30;-0.67;3.21;-1.06;-0.70;7.88
0.02;-0.02;1.14;-0.28;-0.42;7.12;-1.07;-0.71;8.07
0.02;-0.02;1.15;0.39;2.49;1.98;-1.05;-0.65;8.13
0.03;-0.02;1.13;-0.25;-0.61;-0.02;-1.06;-0.68;8.12
0.03;-0.01;1.14;-0.18;0.16;0.02;-1.06;-0.69;8.12
0.03;-0.02;1.15;-0.48;-0.41;-0.25;-1.07;-0.72;8.12
0.02;-0.02;1.15;0.08;-0.82;0.08;-1.07;-0.75;8.12
0.02;-0.02;1.15;0.19;0.00;-0.09;-1.06;-0.75;8.12
0.03;-0.02;1.14;-0.25;-0.21;-0.22;-1.07;-0.77;8.11
0.03;-0.02;1.14;-0.06;2.00;-9.81;-1.07;-0.73;7.85
0.02;-0.02;1.15;0.01;0.60;-0.53;-1.06;-0.72;7.83
0.03;-0.02;1.14;-0.12;0.10;0.10;-1.07;-0.73;7.84
0.02;-0.02;1.15;-0.51;-0.67;0.19;-1.08;-0.75;7.84
0.03;-0.02;1.14;0.07;0.11;-0.24;-1.07;-0.77;7.83
0.02;-0.03;1.15;0.07;0.05;-0.41;-1.08;-0.77;7.82
0.03;-0.02;1.14;0.01;0.39;0.11;-1.07;-0.77;7.83
0.02;-0.02;1.14;0.13;0.07;-0.04;-1.06;-0.78;7.83
0.02;-0.02;1.14;-0.04;0.39;-0.21;-1.06;-0.78;7.82
0.03;-0.02;1.14;-0.15;0.16;0.46;-1.06;-0.78;7.83
0.02;-0.02;1.15;-0.27;0.07;0.46;-1.07;-0.79;7.84
0.02;-0.02;1.14;-0.25;0.77;-0.07;-1.07;-0.77;7.84
0.03;-0.02;1.15;1.17;4.68;0.07;-1.04;-0.66;7.84
-0.02;-0.01;1.18;-2.44;-10.47;0.66;-1.09;-0.89;7.86
0.02;-0.02;1.15;-0.03;0.07;-0.21;-1.08;-0.89;7.86
0.02;-0.02;1.14;0.43;0.22;0.02;-1.07;-0.89;7.86
0.02;-0.02;1.15;-0.01;-0.07;0.24;-1.06;-0.90;7.86
0.02;-0.02;1.15;-0.19;-0.09;-0.02;-1.07;-0.90;7.86
0.03;-0.02;1.15;-0.13;0.31;0.08;-1.07;-0.91;7.86
0.02;-0.02;1.14;0.26;-0.01;0.07;-1.06;-0.91;7.87
0.03;-0.02;1.14;0.02;-0.38;-0.02;-1.06;-0.93;7.87
0.03;-0.02;1.15;-0.07;-0.26;-0.50;-1.06;-0.94;7.85
0.03;-0.02;1.14;0.01;0.22;-0.19;-1.06;-0.94;7.85
0.02;-0.02;1.15;0.10;-0.35;0.33;-1.06;-0.96;7.86
0.03;-0.02;1.15;0.01;-0.41;0.34;-1.05;-0.98;7.87
0.03;-0.02;1.15;0.16;-0.50;0.07;-1.05;-1.01;7.87
0.02;-0.02;1.14;-0.36;-0.18;0.02;-1.06;-1.01;7.87
0.03;-0.03;1.15;-0.06;0.19;-0.05;-1.06;-1.02;7.87
0.03;-0.02;1.14;0.30;0.00;-0.30;-1.05;-1.02;7.86
0.02;-0.02;1.14;0.10;-0.10;-0.10;-1.04;-1.03;7.86
0.02;-0.02;1.15;-0.13;-0.30;0.24;-1.05;-1.04;7.87
0.03;-0.02;1.14;0.04;0.29;0.13;-1.04;-1.04;7.87
0.02;-0.02;1.15;-0.07;-0.29;0.25;-1.04;-1.05;7.88
0.02;-0.02;1.16;-0.18;-0.32;0.08;-1.04;-1.06;7.88
0.02;-0.02;1.14;0.51;-0.30;0.07;-1.02;-1.07;7.88
0.02;-0.02;1.14;0.31;-0.13;0.04;-1.02;-1.07;7.88
0.03;-0.01;1.15;0.02;0.25;-0.15;-1.01;-1.07;7.88
0.03;-0.01;1.15;0.10;0.14;-0.19;-1.00;-1.07;7.88
0.02;-0.02;1.16;-0.15;-0.21;0.07;-1.00;-1.08;7.88
0.02;-0.02;1.15;0.02;0.22;-0.30;-1.00;-1.07;7.87
0.03;-0.02;1.15;-0.42;-0.39;0.56;-1.01;-1.09;7.88
0.03;-0.02;1.15;0.20;-0.12;-0.07;-1.00;-1.10;7.88
0.03;-0.02;1.14;-0.18;-0.27;0.02;-1.00;-1.12;7.88
0.03;-0.01;1.14;-0.10;-0.53;0.19;-1.00;-1.13;7.89
0.02;-0.02;1.14;0.28;-0.07;-0.39;-0.99;-1.14;7.88
0.02;-0.02;1.14;-0.04;-0.30;0.37;-0.99;-1.15;7.89
0.03;-0.02;1.14;0.02;0.20;-0.04;-0.99;-1.15;7.89
0.02;-0.02;1.16;-0.10;0.05;-0.13;-0.99;-1.14;7.88
0.02;-0.02;1.14;0.02;0.03;0.08;-0.99;-1.15;7.88
0.03;-0.01;1.15;0.17;0.40;0.01;-0.98;-1.14;7.88
0.03;-0.02;1.15;-0.01;0.87;-0.07;-0.98;-1.12;7.88
0.02;-0.02;1.15;0.16;1.21;0.08;-0.97;-1.08;7.89
0.02;-0.02;1.15;0.16;-0.33;0.25;-0.96;-1.09;7.89
0.02;-0.02;1.14;-0.01;-0.39;-0.15;-0.96;-1.10;7.89
0.03;-0.02;1.14;-0.07;0.13;0.04;-0.96;-1.11;7.89
0.03;-0.01;1.14;0.36;0.39;-0.02;-0.94;-1.10;7.89
0.02;-0.01;1.16;-0.28;0.02;-0.36;-0.94;-1.10;7.88
0.02;-0.02;1.14;-0.01;0.43;-0.42;-0.94;-1.09;7.87
0.03;-0.02;1.15;-0.03;0.11;-0.09;-0.95;-1.09;7.87
0.02;-0.01;1.15;-0.07;-0.39;0.14;-0.94;-1.10;7.87
0.02;-0.02;1.15;-0.24;-0.50;0.01;-0.95;-1.11;7.87
0.03;-0.03;1.14;0.51;1.12;-0.16;-0.94;-1.09;7.86
0.07;-0.13;1.08;3.20;24.63;-83.02;-0.97;-0.48;5.62
-0.17;0.03;1.20;30.19;93.84;-42.51;-0.12;2.17;4.48
-0.09;-0.64;1.17;-6.76;3.50;41.35;-0.84;2.28;5.59
0.16;-0.61;1.17;-6.53;-10.51;69.33;-1.51;1.82;7.67
-0.11;-0.82;1.17;-14.32;0.94;-31.47;-2.52;1.88;6.79
-0.16;-0.83;1.15;9.15;17.71;19.67;-2.88;2.40;7.32
0.08;-0.73;1.19;2.26;0.46;51.87;-3.36;2.31;8.67
0.18;-0.34;0.98;7.81;-29.55;-57.29;-3.41;1.30;7.07
0.27;0.10;0.76;0.31;-9.66;-95.70;-3.23;0.68;4.58
-0.41;0.84;1.18;-2.86;3.23;-83.95;-2.68;0.98;2.31
-0.54;1.46;1.01;-9.22;1.13;4.60;-2.01;1.24;2.44
1.97;0.32;1.55;39.06;84.33;25.23;-0.87;2.43;3.09
-0.06;0.49;1.00;-0.25;-5.89;8.04;-0.36;2.27;3.31
-0.25;0.83;1.17;-3.67;-13.52;88.14;0.14;1.96;6.04
0.25;0.20;1.22;22.19;26.77;12.21;0.85;2.40;6.36
-0.01;-0.19;1.23;6.68;6.65;-56.44;0.85;2.54;4.78
-0.35;-0.36;1.13;-1.03;-0.65;49.46;0.53;2.74;6.11
-0.19;-0.66;1.14;-1.61;-2.65;118.85;-0.05;2.74;9.20
0.13;-0.63;1.13;-4.61;-6.82;109.26;-0.70;2.42;12.15
0.32;-0.39;1.14;4.30;7.47;48.22;-0.87;2.33;13.41
-0.02;-0.00;1.14;5.41;11.44;-2.24;-0.72;2.59;13.35
0.06;-0.10;1.14;0.62;1.39;-32.62;-0.79;2.52;12.47
-0.06;0.04;1.14;-0.65;-1.42;-34.85;-0.75;2.49;11.53
-0.01;-0.00;1.15;-1.29;-3.61;-2.70;-0.77;2.34;11.44
0.02;0.00;1.14;-2.33;-4.44;-4.53;-0.82;2.16;11.32
-0.00;0.00;1.16;-0.48;0.42;-15.40;-0.81;2.13;10.91
0.01;-0.02;1.14;0.46;1.87;-14.48;-0.79;2.17;10.17
-0.01;-0.01;1.14;1.10;2.97;-11.67;-0.75;2.21;9.86
-0.01;-0.01;1.15;0.62;1.79;-10.12;-0.73;2.22;9.58
-0.02;-0.01;1.14;-0.24;0.92;-6.88;-0.72;2.22;9.40
-0.00;0.00;1.14;-1.11;-0.22;-6.34;-0.74;2.17;9.23
-0.00;-0.01;1.15;-0.41;-0.13;-5.79;-0.75;2.13;9.07
0.01;-0.01;1.14;-4.16;-6.21;-6.21;-0.85;1.92;8.91
-0.01;-0.02;1.16;0.95;-1.78;-10.97;-0.82;1.84;8.57
0.01;-0.02;1.14;1.17;2.55;-6.96;-0.79;1.86;8.38
-0.00;-0.01;1.14;0.05;-0.30;-5.26;-0.79;1.81;8.24
-0.01;-0.01;1.14;-0.25;-0.47;-5.41;-0.79;1.77;8.09
-0.01;0.00;1.14;0.22;0.46;-5.69;-0.76;1.76;7.94
-0.00;-0.01;1.15;0.14;1.47;-4.99;-0.75;1.76;7.81
-0.00;-0.02;1.15;0.81;1.55;-4.13;-0.74;1.77;7.70
-0.02;-0.05;1.14;-0.30;0.07;-5.41;-0.78;1.76;7.55
-0.00;0.00;1.16;0.33;0.78;-0.04;-0.75;1.75;7.55
0.01;0.02;1.17;0.34;0.17;1.81;-0.71;1.71;7.60
0.01;-0.04;1.14;0.74;0.92;-1.98;-0.71;1.69;7.55
0.00;-0.01;1.13;0.16;0.33;-4.86;-0.71;1.67;7.35
-0.01;-0.03;1.16;0.22;0.71;-4.28;-0.72;1.67;7.24
-0.00;-0.04;1.15;0.34;0.23;-5.02;-0.73;1.65;7.10
-0.00;-0.01;1.15;0.54;0.97;-7.55;-0.72;1.64;6.90
-0.01;-0.02;1.17;0.05;-0.32;-8.42;-0.72;1.61;6.68
-0.01;0.02;1.16;0.65;-0.10;-9.31;-0.68;1.59;6.44
-0.03;-0.02;1.15;-0.27;-1.17;-4.89;-0.69;1.55;6.30
-0.00;-0.03;1.13;-0.19;-0.26;1.00;-0.71;1.52;6.33
0.01;-0.01;1.13;-0.59;2.60;-0.22;-0.72;1.55;6.32
0.00;-0.02;1.14;0.33;0.49;-2.96;-0.71;1.52;6.24
0.00;0.02;1.13;-0.16;0.07;-1.89;-0.69;1.49;6.19
-0.01;-0.01;1.16;0.01;1.00;-1.84;-0.68;1.50;6.14
0.00;-0.06;1.13;0.60;1.52;-0.89;-0.71;1.51;6.12
-0.02;-0.03;1.15;0.26;0.16;-1.50;-0.72;1.50;6.08
0.12;-0.03;1.25;-0.39;2.17;-7.73;-0.74;1.42;5.87
0.02;0.04;1.15;-0.83;-0.33;-7.99;-0.71;1.36;5.65
-0.02;0.02;1.16;0.17;0.05;-6.22;-0.67;1.35;5.48
-0.03;-0.02;1.17;-0.15;-0.97;-6.73;-0.68;1.33;5.31
0.01;-0.00;1.15;0.54;-1.16;-7.20;-0.66;1.26;5.11
0.01;-0.06;1.08;0.16;1.39;-1.12;-0.71;1.26;5.08
0.00;-0.02;1.12;-0.67;0.80;-2.44;-0.73;1.26;5.01
-0.03;0.03;1.13;0.48;1.12;-0.10;-0.68;1.29;5.01
-0.01;-0.02;1.14;0.26;0.97;0.83;-0.68;1.30;5.03
-0.02;0.03;1.13;-0.27;1.32;3.58;-0.65;1.33;5.13
-0.02;-0.01;1.13;-0.16;-0.24;8.16;-0.65;1.32;5.35
0.01;-0.01;1.13;-0.57;-0.03;7.26;-0.66;1.29;5.54
0.05;-0.05;1.07;-0.24;-0.06;1.33;-0.70;1.21;5.58
-0.10;0.05;1.19;-0.64;2.05;1.53;-0.67;1.33;5.62
-0.08;-0.00;1.20;-0.50;-1.84;4.80;-0.67;1.33;5.75
-0.01;-0.01;1.13;-0.38;2.46;8.79;-0.68;1.38;5.98
-0.02;0.00;1.16;-0.68;0.78;3.88;-0.68;1.40;6.10
0.00;-0.01;1.14;0.10;-1.35;6.11;-0.68;1.34;6.26
-0.02;-0.02;1.19;-0.32;-1.25;2.33;-0.69;1.30;6.32
-0.00;-0.02;1.12;0.01;1.36;-0.22;-0.70;1.31;6.32
-0.01;-0.03;1.14;0.01;-1.61;-0.04;-0.71;1.25;6.32
0.03;0.00;1.10;0.31;0.03;0.72;-0.69;1.20;6.34
0.02;-0.01;1.12;-0.01;0.42;-2.99;-0.68;1.17;6.26
-0.00;-0.03;1.13;-0.25;-0.94;-3.93;-0.70;1.12;6.15
-0.01;-0.03;1.15;0.31;-0.22;-2.18;-0.71;1.10;6.09
-0.03;-0.03;1.19;0.60;-2.07;2.37;-0.71;1.05;6.16
0.01;-0.00;1.13;-0.38;-0.15;8.21;-0.71;1.02;6.58
-0.01;0.02;1.16;-0.18;-1.00;8.56;-0.68;0.98;6.84
-0.02;-0.02;1.15;0.84;0.40;9.20;-0.66;0.99;7.10
-0.00;0.02;1.16;-0.32;1.21;11.91;-0.63;1.01;7.41
-0.00;-0.02;1.13;0.10;-0.18;10.16;-0.64;0.98;7.68
-0.01;-0.01;1.16;-0.71;-0.07;8.10;-0.65;0.97;7.90
0.01;-0.01;1.12;0.02;1.61;3.55;-0.65;0.98;7.99
0.01;0.03;1.13;-0.36;2.00;3.82;-0.61;1.00;8.10
-0.01;0.00;1.15;0.77;0.58;4.28;-0.58;1.01;8.21
0.02;-0.01;1.16;-0.56;1.13;3.88;-0.59;1.00;8.31
-0.00;-0.02;1.16;0.28;3.81;1.64;-0.58;1.08;8.36
-0.01;-0.04;1.16;-0.12;1.01;1.76;-0.61;1.11;8.41
-0.00;-0.02;1.11;-0.25;-0.36;3.15;-0.62;1.08;8.49
-0.02;-0.02;1.17;0.34;-2.42;3.96;-0.62;1.01;8.60
-0.00;-0.01;1.13;-0.36;1.70;-1.00;-0.62;1.03;8.57
-0.02;-0.09;1.12;-0.33;1.29;-3.31;-0.71;1.07;8.48
-0.01;-0.09;1.18;-0.10;-1.17;-6.04;-0.79;1.02;8.32
-0.04;-0.15;1.13;-0.59;-0.44;-10.57;-0.94;1.03;8.05
-0.01;-0.34;1.15;-0.33;-2.26;-1.61;-1.25;0.96;8.00
-0.03;-0.53;1.21;0.10;0.00;-1.26;-1.69;0.96;7.97
-0.01;-0.65;1.18;-0.74;-0.58;6.42;-2.24;0.93;8.13
-0.04;-0.56;1.31;-1.09;16.84;-40.38;-2.68;1.45;6.88
0.25;-0.65;1.00;-4.96;4.91;-129.60;-3.31;1.38;3.38
-0.40;-0.25;1.10;-1.63;4.22;-152.30;-3.47;1.79;-0.58
-0.45;0.42;1.16;-1.26;0.62;-11.14;-3.14;2.09;-0.88
0.10;0.57;1.24;-0.39;-1.13;70.92;-2.63;1.96;1.04
0.39;0.30;1.11;-0.83;-0.64;15.38;-2.38;1.59;1.45
-0.13;0.26;1.33;-0.68;-2.53;-87.40;-2.15;1.59;-0.91
-0.37;0.37;1.12;-4.74;-1.22;-73.58;-1.95;1.80;-2.89
-0.14;0.35;1.12;-0.35;-1.29;-19.32;-1.61;1.84;-3.42
-0.02;0.25;1.06;0.71;1.29;27.64;-1.30;1.86;-2.64
0.15;0.00;1.23;-1.40;-4.53;49.91;-1.31;1.55;-1.19
0.23;-0.13;1.18;-0.83;-3.28;-33.63;-1.41;1.23;-2.10
0.00;0.10;1.23;-4.42;-2.93;-82.05;-1.40;1.13;-4.32
-0.16;0.28;1.30;-2.48;-4.41;-83.17;-1.22;1.11;-6.48
-0.03;0.20;1.16;-2.44;-5.32;-51.78;-1.07;0.97;-7.88
-0.02;0.04;1.09;-0.22;2.37;-30.50;-1.02;1.04;-8.70
-0.12;-0.06;1.13;-0.57;0.86;-20.48;-1.06;1.16;-9.26
-0.16;0.08;1.19;-0.54;8.97;12.46;-0.99;1.51;-8.92
-0.02;0.20;1.21;-0.71;5.49;23.81;-0.81;1.64;-8.30
0.29;0.08;1.07;0.68;0.25;0.79;-0.71;1.33;-8.28
0.03;0.11;1.14;0.88;1.76;-34.53;-0.55;1.35;-9.66
-0.09;0.11;1.16;-1.87;1.64;-26.09;-0.49;1.44;-10.36
-0.05;0.02;1.16;-1.64;-1.72;-7.20;-0.50;1.41;-10.56
-0.04;0.02;1.15;-0.61;-2.94;4.34;-0.49;1.35;-10.44
-0.01;-0.01;1.15;-0.27;-11.14;11.76;-0.50;1.03;-10.11
0.04;-0.02;1.15;-0.68;-3.20;7.01;-0.53;0.88;-9.93
-0.01;-0.02;1.14;1.14;0.74;-0.19;-0.51;0.89;-9.93
-0.00;-0.02;1.14;0.02;-0.97;-0.13;-0.51;0.85;-9.94
0.02;-0.02;1.08;-0.91;-2.62;0.95;-0.55;0.74;-9.91
-0.14;0.02;1.20;1.65;5.20;0.91;-0.48;0.99;-9.89
0.02;-0.02;1.07;-0.30;-5.95;24.88;-0.50;0.78;-9.17
0.04;-0.03;1.13;-5.16;-8.82;13.01;-0.66;0.47;-8.80
0.03;-0.02;1.13;-6.15;-11.06;3.11;-0.83;0.14;-8.72
0.00;-0.02;1.15;-2.41;-4.55;0.42;-0.89;0.02;-8.71
0.02;-0.02;1.15;-0.04;-0.74;0.37;-0.89;-0.02;-8.70
0.01;-0.01;1.16;3.65;7.96;0.16;-0.71;0.37;-8.69
-0.00;-0.01;1.15;2.51;5.50;-0.19;-0.63;0.52;-8.69
-0.00;-0.02;1.14;1.30;2.34;0.10;-0.60;0.58;-8.69
-0.00;-0.01;1.15;1.62;2.26;0.13;-0.56;0.63;-8.69
0.00;-0.02;1.15;2.30;6.31;0.24;-0.50;0.78;-8.68
-0.01;-0.01;1.15;0.65;4.08;1.06;-0.49;0.89;-8.65
0.00;-0.02;1.15;0.01;1.00;1.84;-0.49;0.90;-8.60
-0.01;-0.01;1.14;-0.21;-1.66;0.63;-0.50;0.85;-8.58
-0.00;-0.01;1.15;-1.37;-4.13;0.66;-0.54;0.72;-8.57
-0.00;-0.02;1.15;-2.42;-6.10;0.10;-0.61;0.55;-8.56
-0.00;-0.02;1.15;-1.25;-5.13;0.13;-0.65;0.40;-8.56
0.01;-0.02;1.14;-2.35;-5.11;0.14;-0.72;0.25;-8.56
-0.00;-0.01;1.14;-8.13;-16.96;0.46;-0.93;-0.20;-8.54
0.16;-0.08;1.11;-19.08;-58.00;1.41;-1.47;-1.83;-8.51
0.02;-0.02;1.15;-1.74;-5.23;0.28;-1.50;-1.95;-8.50
0.00;-0.02;1.17;0.54;-0.59;0.66;-1.48;-1.93;-8.48
-0.00;-0.02;1.17;-0.57;-1.55;-0.13;-1.48;-1.93;-8.48
0.01;-0.02;1.16;-0.74;-2.65;-0.09;-1.50;-1.97;-8.48
0.04;-0.03;1.12;-0.15;-1.60;0.25;-1.50;-2.01;-8.48
0.03;-0.03;1.14;0.16;1.47;0.01;-1.49;-1.97;-8.48
-0.03;-0.06;1.14;6.39;10.39;-0.10;-1.36;-1.63;-8.48
0.02;-0.02;1.13;1.00;5.35;3.95;-1.33;-1.48;-8.37
0.01;-0.02;1.15;1.21;5.20;0.97;-1.29;-1.33;-8.35
0.01;-0.01;1.16;0.40;1.84;0.10;-1.27;-1.26;-8.35
0.01;-0.02;1.14;-0.33;0.02;0.17;-1.28;-1.24;-8.34
0.01;-0.02;1.14;-0.80;-2.09;-0.24;-1.29;-1.29;-8.35
0.01;-0.02;1.16;-0.62;-0.87;-0.13;-1.31;-1.30;-8.35
0.02;-0.02;1.15;-1.46;-5.29;0.24;-1.34;-1.43;-8.34
0.02;-0.02;1.15;-0.53;-1.89;-0.45;-1.35;-1.47;-8.36
0.02;-0.03;1.15;0.07;0.78;-0.19;-1.35;-1.44;-8.36
0.01;-0.02;1.15;-0.38;0.13;0.05;-1.35;-1.42;-8.36
0.01;-0.02;1.15;-0.65;-3.34;-0.15;-1.36;-1.49;-8.36
0.05;-0.03;1.13;-0.01;-1.90;-0.02;-1.36;-1.56;-8.36
0.02;-0.03;1.14;0.20;1.70;-0.34;-1.35;-1.50;-8.37
0.01;-0.02;1.15;0.07;1.07;-0.30;-1.35;-1.45;-8.38
0.01;-0.02;1.15;0.13;1.68;-0.44;-1.34;-1.39;-8.39
0.02;-0.02;1.15;0.19;0.91;0.63;-1.33;-1.36;-8.38
0.02;-0.02;1.14;-0.21;0.13;-0.09;-1.33;-1.35;-8.38
0.01;-0.03;1.15;0.49;1.15;-0.12;-1.32;-1.30;-8.38
0.02;-0.03;1.14;0.17;1.53;-0.24;-1.31;-1.25;-8.39
0.01;-0.02;1.14;-0.09;-1.45;0.08;-1.31;-1.28;-8.39
0.01;-0.02;1.15;0.19;-0.35;0.31;-1.30;-1.27;-8.38
0.02;-0.02;1.15;0.14;0.33;-0.09;-1.29;-1.26;-8.38
0.02;-0.02;1.15;0.04;-0.35;0.01;-1.28;-1.26;-8.38
-0.11;0.24;1.12;0.59;3.30;-18.36;-1.02;-1.05;-8.93
-0.10;0.65;1.20;-2.80;-12.30;-60.09;-0.54;-1.30;-10.55
0.44;1.57;0.37;3.94;22.77;-26.47;0.83;-0.90;-11.30
0.17;1.19;1.23;0.68;-11.34;9.98;1.64;-1.25;-11.04
0.06;1.34;1.09;1.03;0.42;7.47;2.62;-1.24;-10.83
0.02;1.16;1.12;4.11;7.35;19.56;3.58;-1.04;-10.30
-0.66;0.68;1.15;10.78;16.55;87.01;4.20;-0.20;-8.04
-0.64;-0.05;0.97;10.98;1.49;231.73;4.38;0.49;-1.55
0.32;-0.18;1.15;7.93;-14.77;266.65;4.35;-0.16;5.38
0.57;-0.34;1.10;11.41;10.22;178.43;4.34;-0.32;10.20
-0.27;-0.57;1.26;5.84;-0.10;49.99;4.02;-0.15;11.75
-0.35;-1.02;1.11;-0.80;-4.73;17.18;3.22;-0.09;12.22
0.13;-0.65;1.12;0.78;-6.27;9.06;2.63;-0.34;12.46
-0.29;-0.75;1.15;2.77;10.74;-43.41;2.17;0.38;10.25
-0.31;-0.95;1.23;4.14;-5.20;37.43;1.61;0.39;11.33
0.17;-0.39;1.08;-0.48;-8.00;56.68;1.22;0.03;12.86
0.20;-0.67;1.15;0.01;-2.03;-23.28;0.66;-0.15;12.26
0.02;-0.33;1.20;-1.31;2.39;-49.61;0.31;-0.10;10.92
-0.03;-0.10;1.14;-0.32;2.33;-22.21;0.20;-0.01;10.32
0.03;-0.02;1.15;0.17;1.71;-0.47;0.18;0.01;10.31
0.03;-0.04;1.17;0.17;-0.32;-1.26;0.15;-0.03;10.26
0.06;-0.12;1.13;-1.08;-2.79;-20.30;0.00;-0.15;9.71
0.01;-0.01;1.13;-1.20;-0.27;-33.25;-0.04;-0.17;8.81
-0.02;-0.02;1.16;-0.86;2.58;-37.44;-0.09;-0.08;7.80
-0.00;-0.03;1.17;-1.38;-2.41;-45.98;-0.15;-0.14;6.51
0.00;0.01;1.16;-0.68;1.73;-38.50;-0.16;-0.09;5.51
-0.01;-0.06;1.13;-0.70;-0.03;-9.55;-0.23;-0.08;5.25
0.03;-0.01;1.13;-0.04;2.57;5.11;-0.24;-0.04;5.40
0.04;-0.01;1.10;-0.01;4.69;4.30;-0.25;0.04;5.51
0.02;-0.02;1.14;0.66;1.39;6.65;-0.24;0.06;5.69
0.04;-0.01;1.13;-0.77;0.26;3.50;-0.27;0.02;5.79
0.03;0.04;1.18;-0.21;1.67;-6.76;-0.23;0.04;5.61
0.03;0.03;1.13;-0.51;0.36;-6.56;-0.21;0.01;5.43
0.02;-0.00;1.15;-0.12;-0.12;-6.65;-0.21;-0.01;5.25
0.12;-0.08;0.85;0.57;8.78;-13.63;-0.29;0.09;4.89
-0.02;-0.05;1.12;-2.44;-8.13;-15.47;-0.41;-0.12;4.45
0.00;-0.04;1.21;-1.40;-2.21;-22.85;-0.47;-0.17;3.86
0.05;-0.04;1.10;-0.41;1.62;-30.56;-0.51;-0.18;3.03
-0.01;-0.03;1.16;0.14;1.74;-23.29;-0.53;-0.12;2.40
-0.02;-0.06;1.18;-0.65;-2.73;-8.80;-0.59;-0.17;2.18
0.02;-0.04;1.13;-0.06;2.81;-8.89;-0.62;-0.10;1.90
0.02;0.00;1.13;-0.70;-1.81;-0.09;-0.62;-0.17;1.90
0.01;0.01;1.15;0.60;0.23;7.26;-0.59;-0.17;2.09
0.04;0.03;1.15;0.46;0.95;10.69;-0.54;-0.18;2.37
0.05;0.01;1.12;0.63;-0.26;4.86;-0.51;-0.23;2.50
0.01;0.03;1.17;0.33;0.94;2.30;-0.46;-0.22;2.56
0.05;-0.03;1.13;1.52;4.86;4.53;-0.43;-0.13;2.69
0.00;-0.02;1.13;0.55;2.13;14.75;-0.43;-0.08;3.07
0.03;-0.01;1.14;1.00;1.15;17.27;-0.41;-0.07;3.54
0.03;0.01;1.15;0.10;-1.34;12.50;-0.39;-0.14;3.88
0.01;-0.04;1.14;0.78;0.16;11.64;-0.41;-0.14;4.22
-0.00;-0.03;1.14;1.17;0.19;20.10;-0.40;-0.14;4.77
0.41;-0.09;1.33;5.01;18.94;-2.12;-0.32;0.05;4.71
0.10;-0.01;1.14;0.37;2.42;23.08;-0.32;0.01;5.31
0.01;-0.02;1.15;0.63;3.90;27.27;-0.32;0.10;6.04
0.22;-0.05;1.25;0.71;1.61;14.60;-0.33;-0.05;6.42
0.04;-0.00;1.15;-0.09;-1.64;11.96;-0.33;-0.13;6.75
0.02;0.03;1.15;-0.30;-2.65;5.67;-0.30;-0.22;6.91
0.01;0.01;1.15;-0.10;-2.33;-0.39;-0.28;-0.29;6.90
0.01;-0.02;1.15;-0.09;-4.35;0.04;-0.30;-0.41;6.90
0.02;-0.01;1.15;-0.07;-2.90;-0.09;-0.30;-0.50;6.89
0.02;-0.01;1.15;0.08;-0.36;-0.16;-0.31;-0.52;6.89
0.02;-0.02;1.14;-0.18;0.36;0.08;-0.33;-0.52;6.89
-0.02;-0.01;1.16;-0.51;-3.28;0.05;-0.34;-0.58;6.89
-0.02;-0.01;1.20;-1.70;-6.24;-1.87;-0.39;-0.72;6.84
0.02;-0.02;1.15;-0.19;-0.32;-4.96;-0.41;-0.74;6.71
0.01;-0.02;1.15;-0.15;-1.93;-3.41;-0.42;-0.78;6.62
0.03;-0.02;1.14;1.01;3.61;-0.25;-0.41;-0.70;6.61
-0.01;-0.15;1.15;1.39;5.74;2.59;-0.51;-0.52;6.68
0.01;-0.52;1.11;0.14;-3.03;14.04;-0.99;-0.60;7.06
0.05;-0.42;1.17;-1.66;-3.09;-11.81;-1.40;-0.70;6.74
-0.22;-0.27;1.23;0.25;1.87;-3.34;-1.56;-0.42;6.56
-0.02;0.11;1.09;1.56;-3.26;61.18;-1.38;-0.49;8.28
0.27;0.55;1.17;0.17;-9.06;61.04;-0.93;-0.90;9.92
0.15;1.33;1.24;0.68;1.24;-11.95;-0.01;-0.91;9.61
0.51;0.99;1.16;-2.88;-5.90;-50.56;0.52;-1.32;8.20
-0.18;0.49;1.22;0.07;7.71;-84.89;0.90;-0.98;5.99
-0.64;0.25;1.19;2.80;6.34;-9.47;1.11;-0.32;5.74
-0.28;-0.73;1.18;7.09;3.62;167.09;0.74;-0.05;10.25
0.40;-0.83;1.14;3.09;-2.79;122.66;0.23;-0.35;13.44
0.34;-0.55;1.13;-0.27;2.16;-25.81;-0.19;-0.51;12.71
-0.01;-0.07;1.14;-1.74;-2.61;-33.54;-0.31;-0.57;11.67
-0.02;-0.03;1.16;-1.00;-2.88;-11.25;-0.36;-0.61;11.38
0.01;-0.01;1.13;-0.07;-0.06;-0.54;-0.36;-0.61;11.37
0.02;-0.02;1.14;0.19;0.89;-0.15;-0.37;-0.59;11.36
0.02;-0.02;1.15;0.14;-0.16;-0.47;-0.38;-0.60;11.35
0.01;-0.02;1.15;0.20;0.83;-0.21;-0.38;-0.58;11.34
0.02;-0.02;1.14;0.11;0.58;-0.27;-0.39;-0.58;11.34
0.02;-0.02;1.16;-0.21;0.25;-0.41;-0.40;-0.58;11.33
0.02;-0.01;1.15;0.34;0.55;0.16;-0.40;-0.57;11.33
0.02;-0.01;1.15;0.48;0.11;0.05;-0.39;-0.58;11.33
0.02;-0.02;1.14;0.80;0.78;-0.54;-0.37;-0.56;11.32
0.08;-0.35;1.15;1.78;8.71;-20.50;-0.64;-0.38;10.76
-0.06;-0.67;1.19;1.90;12.26;-84.63;-1.14;-0.02;8.56
-0.17;-0.62;1.11;-1.78;4.43;-93.78;-1.68;0.21;6.03
-0.12;-0.48;1.21;-5.00;-11.49;-8.71;-2.18;-0.03;5.79
0.10;-0.67;1.15;-1.64;-4.85;28.98;-2.73;-0.21;6.54
0.02;-0.65;1.09;1.29;1.65;15.79;-3.25;-0.18;6.97
0.08;-0.21;1.11;-1.81;-4.99;7.95;-3.43;-0.38;7.18
1.53;0.39;0.68;-5.08;33.65;-75.73;-3.29;-0.62;5.21
-0.24;1.80;1.10;1.44;-0.53;36.13;-2.10;-0.53;6.66
0.39;-0.07;1.12;-12.94;-21.23;15.32;-2.45;-1.44;7.07
-0.18;1.29;1.08;-4.24;2.68;-95.41;-1.60;-1.25;4.59
-0.51;0.09;1.11;5.65;5.47;84.80;-1.35;-0.62;6.97
0.13;-0.72;1.24;3.21;2.43;124.34;-1.79;-0.62;10.32
0.50;-0.68;1.16;0.52;0.07;55.21;-2.19;-0.91;11.81
0.00;-0.01;1.15;6.31;14.22;-0.36;-1.99;-0.51;11.80
-0.05;-0.13;1.13;2.13;4.08;2.72;-2.02;-0.35;11.88
0.05;0.02;1.11;1.55;3.47;5.91;-1.92;-0.30;12.04
0.03;0.02;1.14;-1.12;-2.80;-5.44;-1.89;-0.40;11.89
0.00;-0.01;1.15;-2.96;-5.58;-5.70;-1.95;-0.57;11.71
0.01;-0.02;1.14;-1.83;-3.67;0.30;-1.97;-0.66;11.72
0.00;-0.00;1.16;-0.59;-1.03;0.21;-1.95;-0.68;11.73
0.01;-0.02;1.14;0.92;1.45;0.02;-1.91;-0.64;11.73
0.02;-0.01;1.14;0.77;0.52;0.01;-1.86;-0.63;11.73
0.01;-0.27;1.17;1.62;0.19;-20.56;-2.04;-0.63;11.17
0.02;-0.20;1.16;-1.54;0.13;-38.83;-2.23;-0.63;10.16
-0.03;-0.36;1.16;-1.60;0.69;-44.70;-2.57;-0.58;8.91
-0.10;-0.70;1.18;0.40;4.13;-29.18;-3.09;-0.40;8.12
0.02;-0.75;1.21;-1.67;-4.16;4.05;-3.70;-0.51;8.23
-0.06;-0.72;1.12;-0.07;1.73;-46.60;-4.26;-0.41;6.83
-0.13;-0.14;1.11;1.96;5.70;-61.92;-4.24;-0.14;5.16
0.09;0.72;1.09;2.75;4.02;-42.19;-3.46;-0.09;4.07
0.01;1.38;1.14;1.03;1.50;-29.99;-2.36;-0.05;3.23
-0.04;1.28;1.09;3.96;4.11;27.09;-1.23;0.08;3.96
0.41;0.71;1.06;-21.81;-40.27;-15.92;-1.25;-1.21;3.54
-0.50;1.21;1.13;0.81;6.58;-17.60;-0.47;-0.77;3.05
-0.27;-0.24;1.21;6.74;3.79;128.04;-0.47;-0.44;6.38
0.13;-0.55;1.18;-1.38;0.03;-24.62;-0.99;-0.52;5.07
-0.07;-0.05;1.17;0.94;3.07;-3.92;-0.99;-0.36;4.97
-0.00;-0.01;1.15;-0.04;-0.79;0.13;-0.98;-0.37;4.97
0.01;-0.02;1.13;0.63;-0.19;-0.22;-0.97;-0.38;4.96
0.02;-0.02;1.14;-1.28;-3.11;0.02;-1.00;-0.47;4.96
0.03;-0.01;1.16;0.07;1.27;-15.25;-0.98;-0.45;4.54
0.01;-0.01;1.13;-1.02;-2.79;-2.71;-1.00;-0.53;4.46
0.01;-0.02;1.19;0.98;2.68;-1.28;-0.97;-0.46;4.43
0.01;-0.02;1.15;-0.07;0.74;0.86;-0.98;-0.43;4.45
0.01;-0.02;1.14;0.94;2.02;0.21;-0.95;-0.38;4.46
0.01;-0.01;1.14;0.83;0.98;-0.33;-0.92;-0.36;4.45
0.01;-0.06;1.15;1.41;3.33;-0.33;-0.92;-0.28;4.44
-0.01;-0.50;1.16;3.30;7.13;-8.22;-1.27;-0.06;4.20
-0.05;-0.80;1.10;2.10;7.30;-42.53;-1.89;0.17;3.01
-0.12;-0.75;1.20;-0.45;4.23;-20.47;-2.45;0.35;2.46
0.10;-0.65;1.17;-3.02;-2.21;-5.72;-3.02;0.22;2.31
0.01;-0.18;1.15;-0.03;4.58;-17.49;-3.14;0.33;1.84
-0.09;0.51;1.14;1.33;3.87;10.82;-2.59;0.49;2.13
0.12;1.10;0.84;-5.70;1.30;-7.72;-1.71;0.44;1.93
-0.00;1.49;0.98;2.57;5.27;3.70;-0.47;0.58;2.03
0.62;0.74;1.00;-22.59;-45.90;-18.19;-0.55;-1.00;1.56
-0.17;1.12;1.26;1.15;10.83;-168.77;0.26;-0.61;-3.00
-0.40;-0.22;1.14;-2.18;0.33;-21.61;0.03;-0.26;-3.65
-0.06;-0.88;1.25;3.24;6.49;41.61;-0.57;-0.06;-2.52
0.13;-0.54;1.19;-0.62;-1.86;56.16;-1.02;-0.19;-1.01
-0.02;-0.02;1.20;3.30;3.84;2.07;-0.93;-0.06;-0.95
0.04;-0.02;1.15;-4.27;-10.44;19.84;-1.04;-0.36;-0.43
0.03;-0.02;1.14;0.19;-1.52;1.23;-1.03;-0.42;-0.40
0.01;-0.02;1.14;-0.67;-2.27;0.02;-1.04;-0.49;-0.40
0.01;-0.01;1.15;-0.45;0.00;-0.34;-1.04;-0.49;-0.41
0.01;-0.02;1.14;-0.35;-0.42;0.33;-1.05;-0.50;-0.40
0.01;-0.01;1.15;-0.09;0.07;0.17;-1.04;-0.50;-0.40
0.00;-0.02;1.15;0.69;0.46;0.39;-1.02;-0.48;-0.38
0.01;-0.02;1.16;0.25;0.69;0.46;-1.00;-0.46;-0.37
0.00;-0.02;1.16;0.28;0.78;-0.22;-0.99;-0.43;-0.38
0.01;-0.02;1.16;1.88;3.24;0.39;-0.95;-0.35;-0.37
-0.27;-0.50;1.19;6.36;9.88;37.09;-1.14;0.10;0.63
0.13;-0.87;1.18;-5.03;-3.06;36.79;-1.92;-0.05;1.59
0.28;-0.69;1.11;-2.91;-7.57;-7.17;-2.48;-0.44;1.39
0.22;-0.46;1.06;-2.73;-1.86;-53.57;-2.90;-0.65;-0.06
-0.43;0.21;1.52;-1.80;-11.67;-68.63;-2.76;-0.67;-1.91
-0.08;0.85;1.06;-7.67;-12.55;-49.46;-2.18;-0.94;-3.24
-0.22;1.28;0.93;1.15;-15.17;-13.92;-1.14;-1.27;-3.68
0.06;0.14;1.15;-5.69;-20.47;15.84;-1.14;-1.84;-3.25
-0.17;1.50;1.18;6.13;6.71;69.96;0.00;-1.55;-1.36
-0.30;0.57;1.17;6.77;1.91;155.90;0.61;-1.27;3.01
0.12;-0.33;1.18;-0.12;-6.35;122.54;0.31;-1.49;6.19
0.17;-0.67;1.12;-1.58;-10.50;83.76;-0.29;-1.85;8.45
-0.02;-0.35;1.11;0.88;-2.10;55.00;-0.60;-1.85;9.94
-0.02;-0.58;1.25;3.17;5.84;8.43;-0.99;-1.65;10.17
0.05;-0.60;1.20;-1.67;-3.02;-48.60;-1.53;-1.74;8.81
-0.17;-0.11;1.14;0.45;2.72;-17.15;-1.58;-1.47;8.36
0.06;-0.03;1.15;2.16;5.68;-17.81;-1.50;-1.28;7.65
0.10;-0.02;0.85;-0.07;-0.85;-6.70;-1.50;-1.40;7.46
0.01;-0.02;1.18;-0.97;-5.69;-0.71;-1.52;-1.53;7.44
-0.07;-0.00;1.23;-3.23;-8.03;-1.46;-1.58;-1.65;7.40
-0.01;0.01;1.15;-1.08;0.02;-1.72;-1.57;-1.60;7.35
0.03;-0.02;1.13;1.04;5.56;-3.89;-1.51;-1.33;7.16
0.02;-0.02;1.16;-0.93;-0.97;-8.85;-1.53;-1.36;6.91
-0.01;-0.01;1.15;-0.01;3.78;-5.31;-1.51;-1.22;6.76
0.02;-0.03;1.15;-0.03;1.03;-1.79;-1.50;-1.19;6.72
0.03;-0.10;1.15;0.62;7.18;-7.15;-1.55;-1.00;6.52
0.03;-0.01;1.10;0.97;9.64;-10.25;-1.50;-0.73;6.23
-0.02;0.04;1.18;-0.70;-1.42;-5.79;-1.45;-0.74;6.06
-0.00;0.01;1.14;-0.61;0.92;3.15;-1.43;-0.69;6.15
0.01;-0.02;1.14;-1.41;-6.94;0.27;-1.46;-0.86;6.15
0.01;-0.02;1.15;-1.43;-5.90;0.24;-1.49;-1.02;6.16
0.02;-0.02;1.14;-0.38;3.33;0.07;-1.49;-0.93;6.16
0.01;-0.01;1.16;-0.30;-0.15;-0.19;-1.48;-0.92;6.16
0.01;-0.02;1.14;-0.56;-1.54;-0.45;-1.48;-0.96;6.15
0.00;-0.02;1.15;-0.61;-2.35;-0.22;-1.49;-1.01;6.14
0.01;-0.02;1.14;0.13;1.01;-0.05;-1.47;-0.97;6.14
-0.15;0.02;1.32;0.98;6.05;0.21;-1.40;-0.64;6.14
0.02;-0.02;1.15;0.40;4.13;-0.16;-1.37;-0.54;6.14
0.01;-0.02;1.14;-0.42;1.36;-0.30;-1.37;-0.51;6.13
-0.01;-0.01;1.16;-7.60;-40.68;0.65;-1.57;-1.60;6.15
0.02;-0.02;1.14;1.06;5.09;-0.39;-1.53;-1.46;6.14
0.02;-0.03;1.15;0.42;1.76;0.02;-1.51;-1.40;6.14
0.02;-0.02;1.14;-0.35;0.66;0.30;-1.51;-1.38;6.15
0.01;-0.02;1.14;-0.07;-1.38;-0.18;-1.51;-1.40;6.14
0.03;-0.01;1.15;-0.47;-0.65;0.28;-1.50;-1.41;6.15
0.02;-0.02;1.14;-0.10;0.16;-0.51;-1.50;-1.40;6.14
0.20;-0.09;0.85;0.46;-4.58;1.40;-1.55;-1.76;6.18
-0.04;-0.01;1.19;-0.57;-1.78;0.11;-1.54;-1.73;6.19
0.01;-0.02;1.16;-0.39;-0.76;0.22;-1.54;-1.73;6.19
0.02;-0.03;1.13;-0.70;-3.67;0.11;-1.56;-1.81;6.19
0.03;-0.02;1.15;-0.73;-6.19;-0.02;-1.56;-1.97;6.19
-0.01;-0.02;1.19;-0.62;-4.30;0.17;-1.56;-2.03;6.20
0.01;-0.02;1.16;0.23;-0.22;0.50;-1.55;-2.01;6.21
0.02;-0.02;1.17;0.01;2.52;-0.67;-1.54;-1.91;6.19
0.01;-0.02;1.16;-0.28;-1.34;0.01;-1.54;-1.91;6.19
0.01;-0.02;1.10;-4.38;-14.32;0.08;-1.65;-2.26;6.20
-0.05;-0.01;1.23;0.01;-4.55;0.60;-1.62;-2.31;6.21
0.05;-0.03;1.11;-0.25;-1.45;0.24;-1.63;-2.35;6.22
0.01;-0.01;1.16;0.72;2.10;0.05;-1.59;-2.26;6.22
0.03;-0.02;1.16;-0.21;-1.00;0.04;-1.58;-2.27;6.22
0.02;-0.02;1.15;0.17;-0.50;0.27;-1.56;-2.26;6.23
0.03;-0.02;1.14;-0.82;-3.84;-0.18;-1.58;-2.34;6.23
0.02;-0.02;1.15;-0.06;-0.79;0.24;-1.56;-2.34;6.23
0.03;-0.02;1.15;-0.18;0.25;0.01;-1.56;-2.31;6.23
0.03;-0.02;1.15;-0.13;-0.33;-0.13;-1.55;-2.30;6.23
0.03;-0.02;1.16;-0.35;0.05;-0.24;-1.55;-2.28;6.22
0.02;-0.02;1.15;0.37;-0.36;0.34;-1.53;-2.27;6.23
0.03;-0.02;1.15;-0.24;-0.56;0.33;-1.52;-2.26;6.24
0.02;-0.02;1.15;-0.16;-0.38;-0.15;-1.52;-2.25;6.24
0.02;-0.03;1.13;0.19;0.57;0.01;-1.51;-2.21;6.24
0.02;-0.02;1.16;-0.01;-0.01;0.14;-1.50;-2.19;6.24
0.02;-0.02;1.14;-0.15;0.49;0.02;-1.50;-2.15;6.24
0.03;-0.02;1.14;-0.18;-0.48;-0.02;-1.49;-2.16;6.24
0.02;-0.02;1.15;-0.13;-0.41;-0.21;-1.48;-2.14;6.24
0.01;-0.02;1.16;0.13;0.51;-0.28;-1.47;-2.10;6.23
0.03;-0.02;1.15;-0.24;-0.58;0.08;-1.47;-2.10;6.23
0.02;-0.02;1.16;0.08;-0.93;0.08;-1.46;-2.10;6.23
0.03;-0.01;1.15;0.65;2.08;0.36;-1.43;-2.03;6.24
0.03;-0.02;1.15;3.20;13.15;-0.12;-1.33;-1.67;6.24
0.03;-0.02;1.15;1.29;5.82;0.19;-1.26;-1.37;6.25
0.03;-0.02;1.15;1.06;2.86;-0.36;-1.22;-1.29;6.24
0.01;-0.07;1.15;0.40;-0.41;0.57;-1.26;-1.29;6.25
0.03;-0.06;1.12;-0.62;-2.30;-1.79;-1.31;-1.36;6.21
-0.01;0.10;1.19;3.03;9.03;-0.51;-1.11;-1.08;6.19
0.02;-0.02;1.14;-1.99;-6.84;0.33;-1.16;-1.27;6.20
0.02;-0.01;1.15;-1.32;-4.62;-0.12;-1.18;-1.39;6.20
0.04;-0.03;1.13;0.30;0.91;-0.10;-1.18;-1.37;6.19
0.02;-0.01;1.17;2.81;9.67;-0.31;-1.09;-1.10;6.19
0.02;-0.02;1.14;0.74;1.65;0.04;-1.07;-1.05;6.19
0.02;-0.02;1.15;-0.10;0.52;-0.39;-1.07;-1.04;6.18
0.01;-0.02;1.16;0.63;3.47;0.05;-1.05;-0.94;6.18
0.03;-0.02;1.13;0.65;3.03;0.04;-1.03;-0.86;6.18
0.02;-0.02;1.15;-0.53;-2.73;0.21;-1.04;-0.94;6.18
0.01;-0.02;1.15;0.78;3.91;0.08;-1.01;-0.82;6.19
0.01;-0.02;1.16;-0.39;-1.61;-0.04;-1.02;-0.86;6.19
0.02;-0.02;1.15;-0.79;-3.20;0.33;-1.04;-0.94;6.19
