ACCX;ACCY;ACCZ;GYROX;GYROY;GYROZ;ANGLX;ANGLY;ANGLZ
0.03;-0.02;1.15;0.18;-0.05;0.10;1.25;-0.37;0.71
0.03;-0.03;1.14;0.24;-0.12;-0.10;1.20;-0.40;0.71
0.03;-0.02;1.15;-0.45;-0.00;-0.01;1.15;-0.42;0.71
0.02;-0.02;1.14;0.10;0.14;0.02;1.11;-0.43;0.71
0.03;-0.02;1.15;0.18;-0.09;0.19;1.07;-0.45;0.72
0.02;-0.02;1.15;0.08;0.26;0.02;1.04;-0.46;0.72
0.03;-0.02;1.14;0.02;-0.03;-0.07;1.00;-0.48;0.71
0.03;-0.02;1.16;-0.08;0.03;0.22;0.95;-0.50;0.72
0.03;-0.03;1.15;0.33;-0.14;0.05;0.91;-0.52;0.72
0.02;-0.02;1.15;0.14;0.43;-0.07;0.88;-0.52;0.72
0.02;-0.02;1.14;-0.13;0.14;0.02;0.83;-0.53;0.72
0.02;-0.02;1.15;-0.07;-0.17;-0.03;0.80;-0.55;0.72
0.03;-0.02;1.15;0.19;-0.17;-0.06;0.77;-0.57;0.72
0.03;-0.03;1.15;-0.24;0.14;-0.21;0.72;-0.58;0.71
0.03;-0.02;1.15;-0.08;-0.11;0.37;0.68;-0.60;0.72
0.02;-0.02;1.15;0.11;-0.43;0.13;0.65;-0.62;0.73
0.03;-0.02;1.15;0.08;0.35;-0.09;0.62;-0.63;0.72
0.03;-0.02;1.14;-0.13;-0.12;-0.04;0.58;-0.64;0.72
0.03;-0.02;1.14;0.22;-0.26;0.34;0.56;-0.66;0.73
0.03;-0.02;1.14;-0.13;-0.15;-0.09;0.52;-0.68;0.73
0.03;-0.02;1.15;-0.22;-0.03;0.04;0.48;-0.70;0.73
0.03;-0.02;1.14;-0.24;-0.14;-0.41;0.45;-0.72;0.72
0.02;-0.02;1.15;0.01;0.04;0.11;0.42;-0.73;0.72
0.02;-0.01;1.15;0.07;0.20;-0.03;0.40;-0.73;0.72
0.02;-0.03;1.14;-0.05;0.12;0.10;0.36;-0.74;0.72
0.02;-0.02;1.15;-0.10;-0.12;0.17;0.33;-0.75;0.73
0.02;-0.02;1.14;-0.05;-0.11;-0.10;0.30;-0.76;0.73
0.03;-0.03;1.15;-0.30;0.01;0.11;0.27;-0.77;0.73
0.03;-0.02;1.15;0.13;-0.12;-0.10;0.24;-0.78;0.73
0.03;-0.03;1.14;0.11;-0.20;-0.36;0.21;-0.81;0.72
0.03;-0.02;1.15;0.07;-0.05;0.20;0.19;-0.82;0.72
0.02;-0.02;1.14;-0.16;-0.34;0.10;0.16;-0.83;0.73
0.02;-0.02;1.15;0.13;-0.19;0.23;0.14;-0.85;0.73
0.02;-0.02;1.14;-0.28;0.07;-0.53;0.11;-0.85;0.72
0.03;-0.02;1.15;-0.07;0.55;-0.21;0.08;-0.85;0.71
0.03;-0.02;1.14;0.02;-0.19;-0.22;0.06;-0.86;0.71
0.02;-0.02;1.15;0.07;-0.15;0.22;0.04;-0.87;0.71
0.02;-0.02;1.15;-0.07;0.26;-0.12;0.02;-0.87;0.71
0.03;-0.02;1.14;-0.01;0.03;0.01;-0.01;-0.89;0.71
0.03;-0.02;1.15;-0.10;-0.09;0.08;-0.03;-0.90;0.71
0.03;-0.02;1.15;-0.05;0.14;0.17;-0.05;-0.91;0.72
0.02;-0.02;1.15;-0.01;0.23;-0.33;-0.07;-0.90;0.71
0.03;-0.02;1.15;-0.16;0.27;-0.19;-0.09;-0.91;0.70
0.03;-0.02;1.15;-0.15;0.20;-0.21;-0.11;-0.91;0.70
0.02;-0.02;1.15;-0.01;0.30;0.33;-0.13;-0.91;0.70
0.02;-0.03;1.15;-0.21;-0.25;0.04;-0.16;-0.92;0.71
0.02;-0.02;1.15;0.11;-0.02;0.23;-0.17;-0.92;0.71
0.03;-0.02;1.15;0.01;0.29;-0.28;-0.19;-0.93;0.70
0.03;-0.02;1.15;-0.02;0.46;0.08;-0.20;-0.93;0.71
0.03;-0.02;1.15;-0.30;0.06;-0.19;-0.22;-0.94;0.70
0.03;-0.02;1.14;0.13;-0.17;0.07;-0.24;-0.95;0.70
0.03;-0.03;1.15;0.13;-0.29;0.05;-0.26;-0.96;0.70
0.03;-0.02;1.15;0.18;-0.20;-0.15;-0.27;-0.97;0.70
0.03;-0.02;1.15;-0.01;0.09;-0.01;-0.28;-0.98;0.70
0.02;-0.03;1.14;0.28;0.09;0.28;-0.29;-0.98;0.71
0.02;-0.03;1.14;0.07;0.10;-0.01;-0.31;-0.98;0.71
0.02;-0.02;1.15;-0.22;0.33;0.40;-0.33;-0.98;0.72
0.03;-0.03;1.15;-0.08;-0.14;0.19;-0.35;-0.99;0.72
0.03;-0.02;1.15;-0.02;0.01;-0.07;-0.37;-1.00;0.72
0.03;-0.02;1.14;-0.04;0.09;0.04;-0.39;-1.01;0.72
0.03;-0.02;1.15;-0.07;0.14;-0.03;-0.40;-1.01;0.72
0.03;-0.02;1.14;0.18;0.27;-0.06;-0.41;-1.02;0.72
0.03;-0.02;1.15;-0.08;-0.37;0.28;-0.42;-1.03;0.73
0.03;-0.02;1.14;0.14;-0.46;-0.01;-0.43;-1.05;0.73
0.01;-0.02;1.16;-0.36;-0.05;-0.39;-0.45;-1.04;0.72
0.03;-0.02;1.13;-0.07;-0.34;0.16;-0.46;-1.06;0.72
0.03;-0.02;1.14;-0.05;-0.17;0.07;-0.47;-1.07;0.72
0.03;-0.02;1.14;-0.08;0.30;0.20;-0.48;-1.07;0.73
0.03;-0.02;1.14;-0.05;-0.14;-0.28;-0.50;-1.08;0.72
0.03;-0.03;1.15;0.37;0.01;0.22;-0.50;-1.09;0.72
0.02;-0.02;1.16;-0.31;-1.04;0.20;-0.52;-1.11;0.73
0.03;-0.02;1.15;-0.15;-0.25;-0.21;-0.54;-1.12;0.72
0.02;-0.02;1.15;-0.25;-0.90;0.16;-0.55;-1.14;0.73
0.02;-0.02;1.14;-0.30;-0.28;-0.01;-0.57;-1.14;0.73
0.03;-0.02;1.14;-0.66;-2.14;0.05;-0.60;-1.21;0.73
0.03;-0.05;1.15;-5.99;-13.44;-1.06;-0.77;-1.53;0.70
-0.01;-0.01;1.17;-14.30;-1.10;-11.41;-1.12;-1.51;0.42
0.02;-0.00;1.18;-16.73;-14.96;-15.83;-1.49;-1.85;0.04
0.04;-0.04;1.27;-15.38;-33.94;0.94;-2.22;-3.44;0.08
-0.01;-0.04;1.03;-10.24;-39.33;5.85;-2.48;-4.37;0.24
0.05;-0.02;1.13;-8.94;33.66;6.16;-2.68;-3.51;0.39
0.07;-0.10;1.05;-6.91;-22.54;-9.89;-2.98;-4.35;0.01
0.08;-0.09;1.02;-3.40;78.93;-62.03;-3.10;-2.33;-1.60
0.03;0.05;1.31;-3.73;-19.53;-10.47;-3.09;-2.83;-1.88
0.02;-0.03;1.17;-3.40;4.32;-8.71;-3.15;-2.67;-2.13
0.02;-0.03;1.11;-2.97;19.14;-22.64;-3.19;-2.15;-2.71
0.06;-0.00;1.16;-8.56;-0.70;-9.22;-3.36;-2.19;-2.96
0.02;-0.07;1.13;-24.31;2.29;-20.83;-4.00;-2.10;-3.53
0.02;0.00;1.20;-27.76;9.43;-20.94;-4.65;-1.83;-4.09
0.08;-0.08;1.15;-26.86;-24.99;5.24;-5.35;-2.53;-3.95
0.04;-0.07;1.01;-19.53;-6.09;-29.90;-5.89;-2.71;-4.85
0.01;-0.07;1.21;-17.92;-27.09;-9.58;-6.33;-3.41;-5.11
0.12;-0.10;1.05;-21.98;-23.12;-5.22;-6.88;-4.07;-5.26
0.07;-0.09;1.17;-22.11;-23.21;3.64;-7.39;-4.64;-5.16
0.01;-0.12;1.08;-23.34;4.01;-11.96;-7.99;-4.45;-5.48
0.07;-0.10;1.11;-19.03;20.44;-7.60;-8.42;-3.89;-5.69
0.14;-0.11;1.21;-15.58;2.12;-4.48;-8.76;-3.88;-5.81
0.15;-0.15;1.26;-6.48;-86.37;0.91;-8.88;-6.21;-5.79
-0.12;-0.01;1.17;-7.87;-80.49;2.49;-8.92;-8.01;-5.72
0.14;-0.08;1.16;-1.11;-108.52;32.78;-8.84;-10.96;-4.80
0.19;-0.13;1.16;-27.73;-181.09;25.30;-9.61;-16.40;-4.02
0.12;-0.17;1.24;-9.72;-261.96;36.22;-9.81;-22.85;-3.08
0.24;-0.11;1.37;-6.56;-318.34;30.92;-9.86;-31.00;-2.24
0.33;-0.21;1.16;-4.28;-501.25;8.20;-9.94;-43.92;-2.02
0.21;-0.19;0.98;20.13;-493.82;30.08;-9.41;-55.83;-1.24
0.41;-0.14;1.23;46.97;-498.69;52.54;-8.03;-68.73;0.23
0.60;0.01;0.58;21.50;-501.25;-7.55;-7.29;-81.53;0.03
0.58;-0.28;0.73;-5.02;-418.84;-17.12;-7.51;-91.58;-0.43
0.81;-0.13;0.52;8.48;-306.05;18.19;-7.25;-98.88;0.06
0.79;-0.10;0.52;-53.79;-262.93;-12.18;-8.83;-105.92;-0.32
0.93;-0.07;0.66;-69.40;-99.12;-13.55;-10.48;-107.37;-0.67
1.23;-0.12;0.88;-87.96;-193.45;-19.72;-12.66;-111.36;-1.20
1.06;-0.16;0.71;-23.98;-172.17;-28.07;-13.17;-114.87;-1.99
0.74;-0.07;0.60;61.18;-62.72;-52.04;-11.40;-115.13;-3.34
0.76;-0.05;0.34;60.88;-53.79;-17.15;-9.56;-115.57;-3.82
0.82;-0.04;0.31;13.03;52.91;-6.59;-9.07;-113.25;-4.00
0.90;-0.10;0.53;-2.98;108.67;-7.72;-9.05;-109.11;-4.21
0.98;-0.12;0.51;14.01;149.30;-13.25;-8.59;-104.11;-4.57
0.95;-0.06;0.42;10.98;255.95;-39.02;-8.15;-95.76;-5.74
1.07;-0.15;0.51;-9.41;383.28;-69.81;-8.35;-84.50;-7.69
1.05;-0.16;0.71;-7.53;345.43;-100.07;-8.49;-74.67;-10.40
0.55;-0.01;0.59;11.87;424.88;-110.83;-8.01;-62.79;-13.39
0.45;0.13;0.92;-113.57;474.91;-17.28;-10.75;-49.44;-13.86
0.56;-0.07;0.92;-122.13;304.21;-10.47;-13.94;-40.69;-14.15
0.10;0.04;0.89;-47.96;360.23;47.90;-14.83;-30.82;-12.90
0.45;-0.18;1.45;-77.73;303.13;99.46;-16.78;-22.20;-10.12
0.49;-0.14;1.16;4.01;125.81;9.18;-16.44;-18.83;-9.87
-0.00;0.02;0.51;5.84;320.72;64.26;-15.89;-9.02;-7.94
0.47;-0.32;1.28;-155.96;291.26;79.56;-20.06;-1.18;-5.72
0.34;-0.21;1.26;-80.37;142.55;2.94;-21.93;2.36;-5.64
-0.21;-0.10;0.86;-54.89;272.72;18.74;-23.05;9.78;-5.13
0.22;-0.33;1.54;-136.11;154.58;63.97;-26.41;13.53;-3.40
0.38;-0.31;1.36;-7.40;1.36;-47.89;-26.28;13.04;-4.70
-0.07;-0.17;0.97;32.13;2.14;-40.41;-25.09;12.91;-5.79
0.07;-0.20;0.96;11.89;15.72;2.37;-24.49;13.01;-5.72
0.07;-0.20;0.96;9.61;14.10;-9.67;-23.97;13.04;-5.97
-0.04;-0.21;0.91;-58.59;68.70;50.31;-26.95;16.59;-3.15
0.09;-0.29;1.22;-166.85;52.14;59.53;-30.92;17.52;-1.61
0.28;-0.39;1.36;-236.07;-39.03;39.68;-37.04;15.91;-0.50
0.27;-0.43;1.32;-275.66;-90.48;33.14;-43.90;13.03;0.40
0.00;-0.43;1.24;-318.62;-70.44;52.86;-51.53;10.97;1.77
-0.07;-0.54;1.14;-338.71;-57.56;114.95;-59.94;9.28;4.88
0.20;-0.61;1.16;-379.41;-167.99;99.33;-68.89;4.68;7.46
0.37;-0.68;1.02;-401.69;-236.75;37.79;-79.05;-2.15;8.52
0.02;-0.62;0.81;-370.42;-132.77;17.56;-88.01;-5.64;8.99
-0.38;-0.61;0.53;-347.23;-13.25;120.30;-97.14;-5.55;12.60
0.05;-0.79;0.83;-412.59;-26.40;175.29;-107.35;-6.20;17.51
0.35;-0.90;1.03;-314.47;-20.95;116.01;-114.19;-6.83;20.64
0.07;-0.88;0.65;-169.58;-65.01;61.12;-117.40;-8.47;22.29
-0.12;-0.88;0.55;-177.67;-64.43;64.72;-120.81;-9.91;24.04
0.04;-0.92;0.68;-130.48;-17.99;76.69;-123.02;-10.23;26.19
0.21;-0.95;0.65;-37.00;-15.33;37.41;-122.45;-10.57;27.16
0.09;-0.89;0.47;52.33;-11.01;-8.96;-119.78;-10.72;26.92
-0.04;-0.84;0.29;83.23;-46.28;-12.33;-116.55;-11.68;26.58
0.11;-0.88;0.63;129.99;-6.77;-25.23;-110.26;-11.79;25.60
0.05;-0.89;0.43;217.70;53.34;-32.86;-103.53;-10.18;24.71
0.15;-0.92;0.58;251.06;112.82;-36.19;-95.85;-7.11;23.74
0.10;-0.98;0.64;329.06;44.52;-48.04;-86.60;-5.91;22.49
0.10;-0.87;0.57;347.53;66.52;-69.83;-76.72;-4.11;20.60
0.41;-0.98;1.09;340.50;62.06;-113.67;-66.84;-2.61;17.53
0.00;-0.77;0.84;501.34;71.17;-147.12;-53.58;-0.74;13.71
0.16;-0.74;0.80;440.69;85.11;-145.17;-41.59;1.40;9.79
0.22;-0.81;0.84;487.24;105.89;-197.54;-28.14;4.13;4.26
-0.25;-0.48;0.85;421.76;135.33;-200.16;-15.66;8.24;-1.75
0.02;-0.41;1.12;389.43;34.24;-150.36;-5.43;8.97;-5.81
-0.04;-0.20;0.88;369.12;117.83;-135.05;4.56;12.06;-9.59
-0.06;0.02;0.93;264.34;127.54;-103.23;11.23;15.14;-12.27
0.00;0.09;1.08;191.72;116.09;-84.15;16.17;17.91;-14.55
-0.04;0.15;1.15;138.69;60.12;-62.25;19.52;19.12;-16.16
-0.06;0.12;1.25;97.95;50.32;-19.72;21.83;20.12;-16.70
0.07;0.12;1.24;83.03;34.94;-16.44;23.77;20.62;-17.16
-0.10;0.17;0.98;42.18;53.86;-7.41;24.55;21.67;-17.35
0.13;0.06;1.39;-39.73;-25.82;-0.79;22.90;20.35;-17.37
0.06;0.05;1.42;-7.92;-74.66;-28.88;22.27;17.92;-18.15
-0.03;0.04;1.37;23.32;-23.21;-7.63;22.45;16.99;-18.35
0.11;0.01;1.60;55.76;-34.03;-14.39;23.49;15.68;-18.74
0.19;0.03;1.48;124.92;-114.84;-73.17;26.46;12.07;-20.79
-0.17;0.13;1.38;148.56;-29.01;-56.86;29.82;11.21;-22.27
0.11;0.08;1.71;248.62;29.77;-39.99;36.09;11.74;-23.39
0.28;0.04;1.65;345.46;-7.12;-86.50;44.53;11.13;-25.72
-0.08;0.17;1.34;418.82;0.85;-110.07;54.45;10.98;-28.58
-0.09;0.27;1.34;435.66;123.16;-47.22;66.38;14.45;-30.00
0.15;0.21;1.15;492.19;59.42;-94.03;77.78;15.55;-32.45
-0.13;0.28;0.99;501.34;111.72;-104.54;89.77;18.31;-35.27
-0.30;0.29;0.68;501.34;196.36;-80.93;102.06;23.68;-37.53
-0.19;0.36;0.48;501.34;99.78;-82.10;113.35;26.00;-39.67
0.01;0.37;0.37;466.25;77.37;-89.09;124.78;27.59;-42.16
-0.06;0.41;0.38;460.34;142.76;-119.00;135.32;30.89;-45.38
-0.21;0.56;0.04;452.62;125.98;-110.36;145.91;33.99;-48.36
0.21;0.80;-0.70;325.85;7.60;-155.92;154.04;32.21;-52.57
-0.27;0.89;-0.27;226.02;109.16;-56.42;159.41;35.25;-54.26
-0.41;0.91;-0.19;138.79;81.63;-14.32;161.29;37.22;-54.63
-0.26;0.88;-0.34;56.72;8.47;6.89;161.53;37.22;-54.44
-0.22;0.82;0.08;-111.40;42.15;32.26;154.35;38.77;-52.86
-0.34;0.91;0.18;-117.31;-16.29;28.95;149.36;37.91;-52.08
-0.44;1.02;0.11;-175.29;-48.57;67.52;143.14;36.35;-50.32
-0.25;0.98;0.17;-249.98;-49.45;101.07;134.75;34.51;-47.49
-0.16;1.00;0.35;-283.31;-70.96;91.82;125.81;32.08;-45.01
-0.43;1.03;0.10;-319.43;-98.92;119.88;116.10;29.24;-41.77
-0.36;0.86;-0.15;-426.98;-24.14;192.62;102.33;28.46;-35.80
-0.23;0.53;0.14;-499.20;-27.24;207.15;88.17;27.55;-30.21
-0.12;0.36;0.60;-499.20;-120.14;232.65;73.72;23.97;-23.93
0.07;0.32;0.48;-499.20;-72.95;214.78;59.63;21.46;-18.13
-0.10;0.23;0.63;-499.20;-26.37;216.66;45.09;20.43;-12.06
0.12;0.03;0.70;-494.85;-86.00;182.04;31.62;17.65;-7.33
0.49;-0.14;0.80;-499.20;-140.00;129.49;17.17;12.91;-3.70
0.38;-0.10;1.46;-499.20;-40.25;40.26;4.05;11.35;-2.66
0.20;-0.04;1.35;-343.35;20.30;51.53;-5.49;11.51;-1.21
0.28;-0.11;1.64;-262.80;48.56;51.49;-13.43;12.58;0.38
0.25;-0.06;1.39;-171.24;17.43;9.39;-17.57;12.57;0.63
0.09;0.09;0.93;-225.29;48.85;29.36;-23.07;13.51;1.42
0.21;-0.09;1.36;-347.43;87.80;74.02;-32.20;15.48;3.49
0.36;-0.22;1.87;-313.69;-13.10;8.36;-39.66;14.65;3.71
-0.01;-0.08;1.53;-202.65;-47.85;-5.84;-44.29;13.10;3.55
-0.29;-0.03;0.79;-212.56;59.11;88.98;-49.06;14.79;5.95
0.24;-0.39;1.18;-360.83;16.88;98.04;-57.58;14.75;8.50
0.24;-0.48;1.47;-326.25;-150.02;-6.27;-65.37;10.34;8.33
-0.31;-0.40;0.80;-312.31;-113.06;36.01;-73.94;6.99;9.45
-0.11;-0.54;0.77;-416.73;-32.60;133.49;-83.71;6.12;12.92
0.41;-0.77;1.18;-407.35;-48.80;113.38;-93.73;4.42;16.09
0.37;-0.81;0.91;-332.11;-99.90;22.48;-101.29;1.44;16.70
-0.14;-0.83;0.47;-361.17;-55.22;37.90;-109.90;0.07;17.72
0.07;-0.91;0.81;-380.28;-35.90;52.74;-118.68;-0.92;19.15
0.05;-0.94;0.69;-312.95;-33.09;56.26;-125.62;-1.82;20.67
0.15;-0.95;0.58;-274.30;-5.24;56.34;-131.41;-2.03;22.19
0.09;-0.96;0.58;-229.66;-4.20;39.32;-136.18;-2.17;23.29
-0.15;-0.91;0.18;-174.62;42.20;53.59;-141.71;-0.32;25.43
-0.05;-0.99;0.25;-220.59;20.94;90.59;-146.18;0.28;27.88
0.20;-1.08;0.53;-187.72;12.64;69.90;-149.34;0.47;29.77
0.21;-1.07;0.55;-113.40;-13.45;18.48;-150.55;-0.06;30.28
0.07;-1.04;0.47;-31.60;-20.54;-20.24;-149.60;-0.64;29.76
-0.06;-1.06;0.23;27.56;-40.77;-23.96;-147.34;-1.69;29.09
0.03;-1.23;0.20;34.63;-84.32;-39.61;-145.10;-3.83;28.06
0.10;-1.31;0.42;98.14;-106.86;-76.30;-140.88;-6.75;25.92
0.09;-1.20;0.50;196.79;-82.31;-103.35;-134.13;-8.85;23.13
0.08;-1.03;0.41;368.92;-25.53;-62.80;-121.90;-9.49;21.25
0.40;-0.99;0.06;439.40;-17.53;-61.98;-109.14;-10.17;19.57
0.51;-1.02;0.28;397.89;45.75;-136.71;-97.08;-9.14;15.74
0.25;-0.91;0.50;390.57;64.23;-216.82;-86.19;-7.52;10.11
-0.19;-0.74;0.26;398.77;43.23;-154.73;-74.69;-5.97;5.77
-0.02;-0.69;0.68;501.34;125.62;-34.38;-60.82;-2.51;4.85
0.23;-0.52;0.57;489.02;410.39;-69.72;-47.33;8.17;2.96
-0.06;-0.39;0.73;448.30;259.83;-58.50;-35.04;14.94;1.38
-0.11;-0.38;0.96;301.23;173.04;-48.39;-26.76;19.31;0.08
-0.11;-0.28;1.39;293.09;120.82;-40.27;-18.11;22.43;-1.09
-0.08;-0.27;1.34;289.02;65.13;-18.42;-10.31;23.77;-1.59
0.02;-0.30;1.23;248.95;53.98;-39.86;-3.54;24.76;-2.70
0.08;-0.26;1.24;197.82;-35.03;-47.96;1.35;23.31;-3.95
0.06;-0.16;1.20;153.43;21.46;-73.72;5.23;23.36;-5.94
-0.16;-0.07;1.04;168.34;4.73;-78.93;9.51;23.18;-8.07
0.16;0.02;1.01;85.61;33.36;-42.59;13.53;24.17;-10.20
-0.14;0.02;1.16;85.08;79.36;-37.34;15.61;26.00;-11.25
0.26;-0.01;1.11;118.76;45.81;-9.22;18.55;26.48;-11.50
0.07;0.13;1.19;92.79;2.58;-101.28;21.11;25.97;-14.64
-0.51;0.31;1.14;73.92;-58.28;-67.26;22.79;24.35;-16.39
-0.06;0.22;1.00;74.27;25.74;65.50;24.53;24.60;-14.62
0.23;0.14;1.25;20.94;6.88;-4.44;24.72;24.11;-14.75
-0.21;0.20;1.21;20.65;-156.17;-25.72;24.91;19.82;-15.42
0.14;0.01;1.08;0.10;-51.03;68.91;24.43;17.88;-13.49
0.25;0.02;1.21;-7.18;-53.56;-4.15;23.77;15.93;-13.60
-0.22;0.13;1.20;-20.53;-119.99;20.55;22.86;12.62;-13.04
0.36;-0.05;1.14;-44.08;-75.12;98.65;21.15;9.97;-10.28
0.23;0.09;1.20;-43.28;-96.41;-3.43;19.70;7.11;-10.37
-0.07;0.09;1.15;-73.60;-72.28;57.12;17.16;4.84;-8.60
0.36;-0.16;0.94;-75.98;-46.40;112.52;14.66;3.15;-5.56
0.45;0.02;1.21;-55.98;-5.85;-1.14;12.90;2.53;-5.59
0.12;0.01;1.12;-23.86;-13.88;-29.48;12.02;2.00;-6.39
0.15;-0.03;1.03;15.11;32.91;9.94;12.15;2.66;-6.12
0.13;0.04;1.00;9.21;68.41;-1.35;12.18;4.22;-6.15
0.09;0.03;1.04;-30.18;94.01;4.74;11.17;6.52;-6.02
0.12;-0.02;1.06;-53.92;186.46;2.89;9.55;11.01;-5.95
0.20;-0.03;1.14;-37.31;386.59;3.41;8.35;20.83;-5.86
0.01;0.06;1.25;62.28;416.78;-10.70;10.07;32.66;-6.18
-0.10;0.06;0.94;96.01;324.26;-10.85;12.38;40.39;-6.46
-0.12;0.05;0.89;-29.84;401.33;-51.61;11.40;50.34;-7.85
-0.55;0.12;1.19;-37.31;318.85;-65.09;10.23;58.53;-9.68
-0.55;-0.06;1.07;-54.45;62.49;-53.69;8.59;59.47;-11.07
-0.40;-0.13;0.98;-63.53;69.68;-89.83;6.63;60.52;-13.50
-0.49;-0.09;0.82;-16.91;210.20;-27.28;5.97;65.43;-14.23
-0.38;-0.08;0.89;13.43;383.95;44.69;6.12;74.34;-13.07
-0.60;-0.10;1.08;-6.45;400.87;42.94;5.76;84.00;-11.91
-1.08;0.07;1.20;52.30;371.36;62.42;7.07;92.95;-10.23
-0.99;0.09;0.99;81.03;402.39;147.46;9.36;103.78;-5.80
-0.56;0.01;0.84;59.63;355.97;102.81;10.76;111.79;-3.03
-0.68;0.07;0.90;53.61;144.07;11.68;12.07;114.20;-2.70
-0.72;0.02;0.75;61.08;145.97;4.86;13.40;116.50;-2.57
-0.66;0.09;0.70;58.22;36.55;-53.57;14.74;115.94;-4.02
-1.01;0.11;0.57;45.72;61.48;-67.57;15.69;116.31;-5.78
-1.12;0.06;0.62;30.28;118.23;16.81;16.22;118.28;-5.32
-0.70;0.02;0.55;11.85;-4.38;-3.80;16.24;116.81;-5.43
-0.81;0.05;0.59;23.46;38.81;-78.06;16.55;116.49;-7.46
-1.16;0.09;0.77;33.05;-20.19;-58.04;17.28;114.62;-9.26
-0.80;0.04;0.65;-17.52;-155.35;-11.31;16.50;109.20;-9.56
-0.60;0.01;0.69;-71.92;-105.59;-22.54;14.35;105.15;-10.15
-1.05;0.13;0.71;-108.80;153.56;-89.37;11.27;108.13;-12.56
-0.77;0.06;0.50;-47.46;42.62;-32.79;9.84;108.17;-13.45
-0.99;-0.21;0.70;-98.51;42.36;-88.35;6.99;108.04;-15.75
-1.28;0.30;0.48;-58.51;-98.98;129.96;5.49;104.44;-12.24
-0.31;-0.20;0.57;-105.72;342.58;220.39;2.43;111.52;-6.51
-0.16;-0.15;1.19;-24.27;-31.53;-76.22;1.64;108.62;-8.49
-1.83;-0.10;1.02;106.71;-13.35;-37.58;5.75;107.09;-9.99
-1.05;0.27;0.58;100.36;212.41;111.39;8.48;111.59;-6.98
-0.68;-0.05;0.59;99.38;140.38;22.45;10.80;113.87;-6.40
-1.07;0.10;0.47;64.14;183.46;-26.15;12.35;117.69;-7.11
-1.19;0.15;0.30;60.27;126.44;28.98;13.81;120.07;-6.32
-1.04;0.02;0.20;-9.64;233.72;94.77;13.31;125.18;-3.86
-1.04;0.09;0.44;-59.12;281.25;99.53;11.55;131.38;-1.17
-0.73;-0.00;0.41;-49.23;117.43;53.20;9.96;133.18;0.32
-1.01;0.03;0.53;7.49;-109.65;-48.88;10.15;126.46;-2.08
-1.10;0.06;0.41;42.77;-133.32;-27.64;11.25;121.35;-2.91
-1.08;-0.05;0.59;0.88;-306.37;-59.63;11.02;111.71;-4.58
-0.95;-0.09;0.92;-79.44;-501.25;-127.96;8.64;97.08;-8.03
-0.82;-0.05;0.99;-29.50;-501.25;-194.56;7.65;82.64;-13.28
-1.01;-0.08;1.08;-1.92;-501.25;-203.23;7.40;68.55;-18.77
-0.86;-0.16;0.93;5.15;-501.25;-156.65;7.30;54.18;-23.16
-0.90;-0.02;0.97;37.67;-501.25;-114.79;8.10;41.17;-26.14
-0.61;-0.11;0.90;13.66;-463.94;-44.59;8.22;28.24;-27.39
-0.53;-0.09;1.00;-2.62;-501.25;-56.47;7.92;15.41;-28.86
-0.35;-0.06;0.74;52.28;-351.22;9.32;9.28;4.90;-28.57
-0.06;-0.06;0.73;47.18;-182.03;47.46;10.30;-0.11;-27.24
-0.10;0.01;0.95;9.11;-248.02;-1.41;10.34;-6.31;-27.28
-0.24;-0.02;0.85;-29.03;-261.28;-2.12;9.32;-13.04;-27.34
0.09;-0.01;0.91;-33.05;-129.62;20.43;8.25;-16.32;-26.79
0.13;-0.01;0.90;-15.60;24.15;23.20;7.66;-15.51;-26.16
-0.10;-0.02;0.93;-82.56;-27.16;7.56;5.30;-15.80;-25.96
-0.11;-0.06;1.18;-112.10;-44.64;14.11;2.06;-16.60;-25.56
0.02;-0.11;1.22;-106.56;-28.80;25.17;-0.79;-17.02;-24.91
-0.01;-0.11;1.31;-119.57;20.18;51.84;-4.50;-16.06;-23.30
0.02;-0.20;1.37;-132.33;-42.17;64.04;-8.21;-16.91;-21.51
0.09;-0.28;1.35;-158.82;-120.61;53.55;-12.31;-19.71;-20.11
0.16;-0.37;1.44;-181.46;-156.25;44.92;-17.30;-23.71;-18.86
0.14;-0.22;1.28;-159.08;-117.93;54.37;-21.50;-26.57;-17.33
0.19;-0.25;0.89;-206.16;-127.15;59.55;-26.59;-29.47;-15.79
0.11;-0.34;0.87;-379.15;-245.94;11.61;-36.84;-35.73;-15.46
0.22;-0.44;0.82;-432.40;-191.50;36.20;-47.58;-40.10;-14.52
0.17;-0.56;1.03;-423.78;-120.61;61.73;-57.92;-42.49;-12.91
0.19;-0.60;0.93;-378.59;-85.57;66.97;-68.83;-44.38;-10.84
0.15;-0.46;0.52;-329.08;-35.74;65.76;-76.85;-44.61;-9.06
0.10;-0.84;0.60;-405.02;-92.06;88.91;-87.04;-46.23;-6.66
0.27;-0.94;0.72;-437.14;-85.97;116.25;-98.17;-47.85;-3.41
0.23;-0.84;0.79;-312.76;-32.46;99.50;-104.97;-47.88;-0.82
0.08;-0.74;0.44;-177.61;-51.86;81.24;-108.66;-48.38;1.37
0.04;-0.82;0.07;-173.47;-16.14;106.60;-112.89;-47.91;4.36
0.08;-0.94;0.15;-237.35;10.53;122.28;-118.20;-46.77;7.54
0.15;-1.17;0.30;-263.00;-45.83;93.21;-125.21;-47.34;10.43
0.23;-1.16;0.38;-155.92;18.00;72.65;-128.23;-46.07;12.46
0.24;-1.22;0.42;-26.53;12.85;9.17;-127.58;-44.98;12.70
0.07;-1.19;0.40;72.05;-27.30;-51.51;-124.41;-44.89;11.26
0.05;-1.15;0.33;176.01;-30.51;-61.58;-118.70;-44.83;9.59
0.02;-1.11;0.33;290.54;8.82;-48.45;-110.09;-43.72;8.29
0.08;-1.09;0.25;381.40;-24.22;-47.81;-99.26;-43.55;7.00
0.14;-1.06;0.23;418.76;51.91;-20.21;-88.02;-41.48;6.47
0.24;-1.01;0.35;392.05;139.01;-6.30;-77.09;-37.17;6.30
0.29;-1.02;0.76;424.83;244.17;1.93;-63.52;-29.19;6.36
0.19;-1.02;1.05;501.34;121.25;-49.09;-49.77;-25.51;5.03
-0.05;-0.96;0.89;501.34;45.68;-112.09;-36.42;-23.76;2.01
-0.01;-0.73;0.45;501.34;118.27;-103.83;-23.09;-20.03;-0.90
0.14;-0.54;0.62;501.34;147.14;-103.43;-10.56;-16.02;-3.59
0.25;-0.20;0.90;472.01;6.65;-192.36;1.95;-15.79;-8.78
-0.26;0.06;0.62;345.03;-77.79;-256.90;11.12;-17.11;-15.72
-0.22;0.17;0.71;156.50;71.77;-117.80;15.09;-14.66;-18.78
-0.08;0.13;1.15;61.00;168.21;-28.80;16.58;-9.67;-19.59
-0.02;0.07;1.54;35.38;68.47;-36.24;17.34;-7.45;-20.67
0.02;-0.03;1.46;52.62;31.59;-17.52;18.31;-6.51;-21.13
-0.01;0.05;1.17;47.06;92.46;21.97;19.24;-3.92;-20.54
0.13;-0.09;1.21;-106.22;52.68;32.81;13.78;-1.48;-18.96
0.18;-0.16;1.34;-87.55;-14.57;-32.99;10.89;-2.00;-19.92
0.03;-0.17;1.25;-49.14;-51.82;-80.21;9.22;-3.36;-22.08
-0.13;-0.15;1.10;-35.84;-67.83;-79.89;7.95;-4.97;-24.24
-0.05;-0.18;1.12;-34.74;-9.41;-44.59;6.66;-5.08;-25.49
0.02;-0.18;1.22;-3.86;1.10;-34.30;6.26;-4.96;-26.38
0.02;-0.17;1.11;18.22;-17.65;-50.61;6.45;-5.35;-27.75
0.25;-0.18;0.84;-4.05;46.53;-65.51;5.97;-3.69;-30.37
0.14;-0.23;0.84;-59.69;63.02;-100.65;4.07;-2.16;-32.99
0.26;-0.43;1.09;-106.59;96.35;-138.96;0.71;0.33;-36.88
0.18;-0.51;1.49;-56.36;42.85;-241.86;-1.13;1.35;-43.41
0.11;-0.64;1.33;33.47;-57.71;-332.21;-0.71;-0.26;-52.38
0.33;-0.62;1.30;69.00;-46.41;-437.67;0.72;-1.68;-64.19
0.09;-0.59;1.10;70.74;-180.26;-497.90;2.12;-6.65;-78.13
-0.09;-0.46;1.01;29.03;-124.49;-478.91;2.36;-9.62;-90.59
0.19;-0.46;1.23;72.79;26.61;-432.86;3.95;-8.83;-102.71
0.18;-0.46;1.01;56.83;-95.71;-483.25;5.35;-11.98;-119.14
-0.20;-0.04;0.96;32.21;-76.75;-458.94;6.02;-13.47;-131.07
-0.26;0.04;0.99;3.58;59.08;-326.83;6.03;-11.36;-139.89
0.05;0.02;1.28;6.39;13.62;-302.32;6.11;-10.80;-148.36
0.10;0.08;1.21;47.82;-35.16;-335.12;7.27;-11.57;-157.07
-0.48;0.29;1.01;74.82;14.87;-272.27;9.33;-10.54;-164.42
-0.37;0.12;1.03;-29.79;68.41;-135.69;8.45;-8.16;-168.09
-0.04;-0.04;1.39;-94.45;-1.09;-134.19;5.85;-8.00;-171.58
-0.11;0.09;1.47;-1.32;8.52;-107.57;5.76;-7.53;-174.48
-0.25;0.23;1.06;58.13;72.21;-42.53;7.61;-4.96;-175.80
-0.40;0.21;1.02;-24.94;29.97;27.03;6.99;-3.75;-175.10
-0.22;0.15;1.50;-74.28;-31.39;62.39;4.99;-4.35;-173.41
-0.46;0.28;1.65;64.04;5.94;147.72;6.73;-3.84;-169.42
-0.23;0.34;1.03;170.76;91.89;272.83;11.42;-1.14;-162.06
-0.24;0.22;0.66;5.75;2.94;289.15;11.62;-0.73;-154.25
-0.51;0.10;0.95;-159.44;3.08;415.62;7.40;-0.12;-143.44
0.07;-0.10;1.53;-79.32;169.97;502.63;5.09;4.33;-129.87
0.29;-0.10;1.47;63.70;34.15;444.08;6.60;4.94;-117.88
0.05;0.04;0.91;-32.86;-293.86;246.55;5.55;-3.86;-110.48
-0.62;0.04;0.78;-105.41;-245.59;365.47;2.68;-9.53;-100.62
0.17;-0.24;1.22;-55.86;108.68;502.63;0.95;-6.60;-87.05
0.14;-0.10;1.36;98.91;188.82;476.91;3.47;-1.58;-74.17
-0.19;-0.15;1.10;51.03;-44.80;386.01;4.62;-2.56;-63.75
0.24;-0.22;1.14;-65.00;-185.19;279.07;2.70;-7.43;-56.49
-0.19;-0.02;1.29;-10.22;-170.67;247.96;2.36;-11.64;-49.80
-0.50;0.02;1.18;25.95;-139.15;378.10;3.01;-14.64;-39.59
0.34;-0.18;0.97;51.89;-18.17;473.14;4.11;-15.14;-27.29
0.76;-0.16;0.87;7.00;-33.88;337.96;4.13;-16.59;-16.81
-0.13;-0.08;0.82;-79.35;-72.99;327.46;1.85;-18.03;-7.97
-0.50;-0.36;1.14;-69.29;33.22;502.63;-0.27;-16.42;5.60
0.18;-0.73;1.39;16.56;80.90;502.63;-0.32;-14.05;19.17
0.61;-0.48;1.43;92.43;36.04;453.85;1.86;-13.17;31.43
-0.42;-0.25;0.90;108.10;-11.19;381.93;4.36;-12.79;41.36
-0.74;-0.38;1.11;-34.01;58.64;502.63;3.11;-10.40;55.43
-0.08;-0.37;1.29;28.72;85.98;502.63;3.47;-7.95;68.50
0.28;-0.51;1.52;-13.46;-20.15;428.78;2.73;-8.48;80.08
-0.19;-0.31;1.49;89.66;-72.74;313.52;5.19;-10.40;89.80
-0.51;-0.26;0.90;110.33;-10.67;371.67;7.69;-9.98;99.46
0.30;-0.34;1.12;14.31;1.85;358.81;7.66;-9.97;109.51
0.30;-0.26;1.31;61.43;-26.54;203.73;8.95;-10.68;115.01
-0.50;-0.11;1.02;80.33;-79.21;169.79;10.74;-12.01;119.42
-0.23;-0.09;1.00;22.34;66.29;284.02;11.56;-8.22;133.91
0.14;-0.16;1.19;-12.69;-6.86;203.33;10.84;-8.36;139.60
0.05;-0.18;1.26;19.84;-15.24;126.04;10.98;-8.63;143.00
-0.16;-0.10;1.11;66.79;-7.74;95.64;12.38;-8.51;145.49
-0.12;-0.10;1.05;21.92;55.51;81.49;12.68;-6.58;147.93
-0.03;-0.10;1.28;4.37;13.07;22.77;12.45;-6.08;148.55
-0.23;-0.11;1.14;-3.79;-57.62;-18.94;12.01;-7.22;148.06
-0.33;-0.17;1.35;-23.79;-92.37;-1.60;11.03;-9.27;148.01
-0.05;-0.22;1.48;-17.86;-116.19;-6.80;10.15;-12.24;147.82
-0.18;-0.19;1.64;8.11;-211.79;-28.16;10.04;-17.28;147.09
-0.35;-0.09;1.37;43.18;-325.80;0.43;10.92;-25.29;147.10
0.08;-0.12;1.16;13.05;-228.96;72.63;10.95;-31.14;149.14
-0.53;0.10;2.00;-17.03;-242.55;10.31;10.34;-36.42;149.40
0.14;-0.03;1.29;1.41;-303.65;10.45;10.15;-45.04;149.73
0.20;-0.02;1.22;-14.95;-305.65;11.97;9.54;-52.41;150.05
0.21;-0.07;1.11;-24.56;-278.61;16.10;8.66;-58.66;150.47
0.27;-0.18;1.21;-14.76;-190.58;38.62;7.95;-62.93;151.55
0.55;-0.16;1.13;23.99;-148.09;35.26;8.29;-65.91;152.47
0.53;-0.10;1.06;55.31;-212.95;-14.27;9.52;-70.72;152.08
0.42;-0.04;0.91;26.22;-241.76;-21.46;10.01;-76.41;151.48
0.34;-0.06;1.01;6.37;-214.87;-8.04;9.92;-80.72;151.27
0.50;-0.13;1.08;43.99;-171.94;24.37;10.80;-84.10;151.93
0.70;-0.10;0.89;94.53;-178.96;3.81;14.22;-90.14;152.08
0.62;-0.05;0.78;80.10;-194.32;-18.39;16.01;-94.21;151.59
0.48;-0.02;0.78;64.92;-222.93;-7.28;17.32;-98.62;151.40
0.69;-0.05;0.69;56.21;-165.64;35.49;18.42;-101.89;152.36
1.00;-0.09;0.62;35.15;-163.77;10.72;18.92;-105.28;152.64
0.85;-0.05;0.61;9.27;-217.50;-45.45;18.74;-109.98;151.42
0.63;0.00;0.53;8.94;-213.59;-17.12;18.61;-114.42;150.96
0.84;-0.04;0.41;-4.30;-175.85;19.41;18.09;-118.02;151.48
0.83;-0.07;0.52;-35.82;-165.68;13.55;16.72;-121.14;151.85
0.70;-0.07;0.73;-2.60;-156.64;26.72;16.25;-124.29;152.67
0.84;-0.04;0.47;45.82;-133.94;47.56;17.06;-126.40;153.91
1.06;0.02;0.19;29.92;-108.22;21.70;17.55;-128.41;154.52
0.91;0.03;0.12;-68.89;-144.35;-30.39;15.41;-131.27;153.70
0.86;0.01;0.25;-123.29;-130.95;-20.06;11.97;-133.45;153.18
1.17;-0.06;0.24;-119.93;-90.99;-44.82;8.51;-134.70;151.97
1.26;-0.09;0.20;-111.32;-51.77;-142.91;5.43;-134.87;148.25
0.69;-0.01;0.36;-113.75;-160.35;-210.68;2.19;-137.80;142.35
0.62;0.04;0.25;-82.22;-87.62;-144.27;0.02;-138.66;138.46
1.10;0.01;0.10;-50.05;12.06;-165.08;-1.44;-137.23;133.50
0.95;-0.09;0.30;-80.76;-42.23;-255.66;-3.63;-136.96;126.60
0.71;0.06;0.44;-48.45;-17.59;-241.09;-4.78;-135.78;120.09
1.01;0.19;0.25;78.02;71.49;-214.35;-2.53;-132.58;114.52
0.97;0.14;0.15;16.94;-25.64;-323.40;-1.87;-132.10;105.46
0.62;0.34;0.27;-55.26;-74.05;-334.91;-2.87;-132.32;96.42
0.45;0.44;0.37;11.52;6.00;-245.25;-1.96;-130.11;90.04
0.94;0.41;0.35;-17.12;-87.38;-291.99;-2.02;-130.84;82.16
0.58;0.54;0.44;-27.15;-131.04;-300.39;-2.14;-132.30;74.05
0.85;0.58;0.22;65.41;-2.67;-217.72;0.40;-130.67;67.52
1.17;0.45;0.04;58.54;11.57;-318.83;2.35;-129.10;58.91
1.02;0.49;0.10;15.31;27.92;-428.70;3.18;-126.98;47.33
0.13;0.72;0.13;47.00;52.55;-389.43;5.71;-123.28;37.21
0.60;0.72;0.05;76.66;128.06;-311.51;8.59;-118.19;28.80
0.38;0.76;0.13;3.02;-9.88;-393.64;9.62;-116.54;18.56
0.01;0.92;0.24;-5.81;49.69;-287.20;10.76;-112.86;10.52
0.28;0.88;0.31;86.42;183.85;-196.99;13.96;-106.00;5.20
0.21;0.74;0.20;50.37;61.43;-235.74;16.19;-102.57;-0.93
-0.01;1.14;0.26;-7.55;63.42;-55.15;16.98;-96.96;-4.07
0.26;1.08;0.21;-90.36;-75.85;-47.93;15.67;-97.18;-5.32
0.29;1.09;0.29;-169.70;-205.45;-60.22;11.94;-101.11;-7.00
0.09;1.23;0.28;-160.19;-103.04;0.31;8.93;-101.89;-6.99
0.11;1.16;0.03;-144.71;36.32;88.72;6.59;-98.99;-4.60
0.14;0.99;0.07;-260.89;39.28;135.35;1.11;-96.12;-0.94
0.43;0.53;0.23;-468.31;59.54;143.59;-10.07;-93.27;2.79
0.29;0.61;0.71;-499.20;8.99;119.30;-22.45;-91.42;6.01
0.24;0.88;0.97;-499.20;-85.25;117.32;-34.49;-92.00;9.18
0.50;0.67;0.54;-385.63;-82.54;107.85;-44.49;-93.03;12.41
0.24;0.72;0.43;-433.90;-54.37;109.33;-54.56;-92.90;15.48
0.04;0.52;0.47;-499.20;-59.47;163.21;-65.75;-92.66;19.88
0.17;0.21;0.69;-499.20;-10.44;218.59;-77.36;-91.30;25.78
0.07;0.14;0.73;-499.20;28.75;251.50;-88.82;-88.81;32.57
0.84;-0.06;1.11;-485.98;-116.74;141.06;-99.94;-90.83;36.38
0.76;-0.15;0.79;-455.90;-127.99;19.18;-110.12;-93.18;36.90
0.37;-0.17;0.52;-499.20;-89.24;-19.74;-121.34;-94.24;36.37
0.36;-0.55;1.11;-499.20;-68.11;10.52;-133.02;-94.47;36.66
0.32;-0.36;1.31;-475.03;29.28;42.14;-144.58;-91.94;37.93
0.45;-0.10;0.72;-304.88;7.83;44.28;-149.85;-90.47;39.12
0.37;-0.28;0.17;-387.00;-15.50;42.52;-157.64;-89.86;40.27
0.29;-0.65;0.41;-499.20;0.18;65.97;-168.06;-88.36;41.99
0.35;-0.74;0.76;-489.34;18.41;75.58;-178.32;-86.37;44.03
0.41;-0.87;0.60;-410.40;14.09;53.24;-186.43;-84.58;45.46
0.39;-0.85;0.35;-371.11;19.16;50.63;-193.50;-82.74;46.83
0.04;-1.02;0.40;-375.73;-9.12;85.35;-201.27;-81.37;49.22
-0.02;-1.08;0.65;-334.80;-18.19;163.26;-206.94;-80.19;53.47
0.26;-1.12;0.42;-188.25;62.72;165.43;-209.69;-76.87;58.59
0.23;-1.08;0.10;-204.13;-39.76;83.84;-212.35;-76.61;60.86
0.24;-1.07;0.52;-218.42;-3.99;83.78;-214.98;-75.35;63.12
0.14;-1.06;0.32;-195.49;-5.53;121.15;-217.19;-74.10;66.39
0.14;-1.12;0.47;-139.73;73.95;176.01;-217.90;-70.69;71.32
0.26;-1.09;0.20;-93.08;116.14;139.53;-217.25;-66.55;74.95
-0.05;-0.95;0.18;-91.03;34.78;109.38;-216.85;-64.25;77.90
0.10;-1.00;0.08;-70.07;68.39;144.51;-216.02;-61.19;81.95
0.14;-1.09;0.14;-99.75;34.44;103.59;-217.02;-58.79;85.99
-0.04;-1.01;0.15;-65.20;3.26;36.85;-216.06;-57.48;87.02
-0.04;-1.03;-0.08;12.54;4.90;36.05;-213.26;-56.16;87.99
-0.39;-1.20;0.27;-19.82;34.15;111.68;-210.74;-53.83;91.01
0.21;-1.50;0.06;-76.80;32.46;91.21;-210.15;-52.05;93.47
0.02;-1.31;0.16;-41.69;-50.38;-12.21;-208.70;-52.36;93.14
-0.26;-1.14;0.02;41.38;-14.25;38.28;-204.95;-51.44;94.17
0.01;-1.25;0.16;31.84;61.33;135.81;-201.66;-48.80;97.84
0.19;-1.23;0.36;120.60;72.23;104.78;-195.64;-45.97;100.77
0.09;-1.20;0.41;257.66;40.52;4.54;-185.50;-43.93;100.91
-0.02;-1.22;0.46;354.21;-13.91;-50.18;-173.79;-43.40;99.56
-0.26;-1.07;0.39;467.31;-88.57;-53.20;-159.13;-44.68;98.12
-0.25;-1.17;0.25;501.34;-40.77;4.23;-144.02;-44.66;98.23
0.12;-1.14;0.52;458.27;-35.80;20.13;-130.22;-44.80;98.78
0.24;-0.95;0.67;501.34;-61.22;-15.69;-115.28;-45.69;98.35
0.20;-1.10;0.57;489.64;-112.25;-93.51;-100.63;-47.99;95.74
-0.03;-0.85;0.54;456.98;25.28;-100.96;-87.65;-46.34;93.01
-0.19;-0.71;0.80;440.91;128.76;-44.32;-74.94;-41.86;91.81
0.13;-0.86;0.99;372.98;130.85;-20.03;-62.86;-37.13;91.19
0.45;-0.80;1.17;383.17;116.27;-151.17;-51.99;-33.57;87.11
0.24;-0.93;0.99;376.25;101.74;-286.57;-42.10;-30.44;79.66
0.16;-0.70;0.97;334.68;9.37;-431.54;-32.71;-29.69;67.58
0.54;-0.81;0.97;85.15;19.10;-489.61;-28.29;-28.46;42.12
0.35;-0.88;1.24;117.38;-27.68;-497.90;-25.19;-28.81;28.67
-0.65;-0.35;0.84;102.71;-56.02;-497.90;-22.13;-29.20;14.73
-0.04;-0.23;0.57;66.85;106.56;-369.02;-20.39;-25.84;5.14
0.06;-0.09;0.58;6.48;66.35;-363.89;-19.96;-23.60;-5.05
-0.05;0.11;0.78;29.40;198.94;-273.64;-18.51;-17.02;-13.53
-0.10;-0.06;1.02;-37.60;216.36;-209.95;-19.16;-11.05;-18.99
-0.03;-0.17;1.47;-47.75;118.82;-226.25;-20.22;-7.55;-25.33
-0.10;-0.03;1.57;19.14;53.17;-250.25;-19.33;-5.92;-32.09
-0.11;0.01;1.47;46.95;5.42;-229.31;-17.69;-5.57;-38.28
0.14;-0.05;1.33;60.95;-9.64;-206.74;-15.71;-5.84;-44.07
0.44;-0.12;1.13;90.27;28.82;-212.88;-13.18;-5.37;-49.60
-0.08;-0.14;0.90;70.65;44.61;-233.89;-11.15;-3.95;-56.15
-0.84;0.11;1.19;-4.83;-4.41;-192.96;-10.99;-3.33;-61.36
-0.88;0.14;1.35;11.43;-23.16;-88.12;-10.36;-3.33;-64.00
-0.48;0.24;1.30;53.14;13.54;7.15;-8.54;-2.55;-63.80
-0.33;0.18;1.07;43.06;-11.44;37.67;-7.09;-2.50;-62.78
-0.06;-0.13;1.13;-62.89;-17.67;74.42;-8.74;-2.87;-60.78
0.01;0.12;1.50;-11.52;-31.48;40.48;-8.78;-3.65;-59.68
-0.52;0.47;0.95;62.34;-4.87;130.57;-6.54;-3.31;-56.03
-0.41;-0.08;0.97;-57.43;13.22;258.62;-7.94;-2.47;-49.30
-0.05;0.11;1.49;-12.69;-66.74;240.75;-8.05;-4.22;-42.56
-0.22;0.10;1.05;63.14;-236.92;217.26;-6.19;-9.96;-36.91
0.01;-0.27;0.77;-3.02;-135.77;341.50;-6.54;-13.89;-26.33
0.31;-0.23;1.11;-6.10;-18.49;344.57;-6.76;-14.38;-16.68
0.03;-0.13;1.23;35.18;-118.43;305.36;-5.81;-17.25;-8.43
0.35;-0.11;0.86;59.43;-106.64;290.11;-4.23;-20.12;-0.60
0.71;-0.18;0.80;12.63;-23.36;209.75;-3.93;-21.08;5.27
0.64;-0.06;0.96;-63.72;-78.74;46.30;-5.52;-23.31;6.48
0.73;-0.13;0.89;-122.25;87.94;-30.88;-8.85;-21.14;5.61
0.30;0.06;0.99;-133.11;143.13;-69.95;-12.28;-17.11;3.65
0.11;0.05;1.09;-214.91;107.43;-96.38;-17.46;-14.14;1.15
-0.14;-0.04;1.41;-298.25;-18.81;-52.30;-26.20;-14.32;-0.47
-0.12;-0.19;1.48;-283.58;-32.11;42.94;-33.59;-14.83;0.73
-0.05;-0.19;1.35;-277.84;3.02;105.90;-40.16;-14.42;3.48
0.12;-0.29;1.03;-314.30;74.97;142.40;-47.95;-12.25;7.33
-0.10;-0.59;0.96;-383.05;-36.60;125.32;-58.08;-12.94;10.83
-0.09;-0.84;0.83;-458.71;12.97;144.08;-69.46;-12.29;14.58
0.42;-1.18;1.09;-499.20;75.25;54.04;-82.53;-10.18;16.09
0.24;-0.70;1.37;-405.31;44.97;-39.51;-91.67;-8.97;15.07
0.04;-0.41;0.81;-209.03;-53.97;-80.38;-96.09;-10.31;12.82
-0.20;-0.61;0.25;-243.17;-49.42;-11.00;-102.63;-11.34;12.48
0.13;-0.87;0.27;-366.92;8.21;43.03;-111.59;-11.03;13.64
0.25;-0.84;0.46;-371.23;41.14;29.87;-120.19;-9.94;14.44
0.19;-0.88;0.60;-327.82;0.39;22.75;-127.74;-9.87;15.08
0.08;-0.80;0.47;-262.88;34.97;5.84;-132.98;-8.86;15.23
-0.03;-0.76;0.14;-241.06;137.04;20.11;-138.48;-4.88;15.80
-0.05;-0.87;0.31;-277.24;100.21;29.72;-144.40;-2.08;16.60
-0.15;-0.85;0.10;-239.61;145.04;61.41;-149.33;1.98;18.26
0.23;-1.02;0.28;-222.98;96.70;43.81;-156.36;5.53;20.01
-0.01;-0.90;0.17;-126.21;46.65;-35.26;-158.27;6.71;19.02
-0.09;-1.07;-0.05;-96.50;76.84;-35.86;-159.41;8.71;18.05
-0.07;-1.28;0.11;-107.79;39.34;-52.88;-160.61;9.60;16.68
-0.14;-1.32;0.22;-58.51;-13.73;-33.87;-160.50;9.13;15.73
-0.05;-1.18;0.14;40.16;-13.82;-14.79;-157.88;8.64;15.34
0.03;-1.16;0.01;83.67;-48.64;-27.75;-154.19;7.10;14.57
0.01;-1.18;-0.01;77.50;-71.53;-25.81;-150.86;5.06;13.87
0.05;-1.12;0.17;68.28;-36.06;37.78;-146.01;3.11;15.80
0.04;-1.03;0.30;87.89;14.10;47.67;-141.77;3.46;17.32
-0.01;-1.00;0.28;101.53;42.07;37.09;-137.73;4.51;18.32
-0.09;-0.96;0.34;100.43;0.32;35.35;-133.64;4.51;19.28
-0.19;-0.93;0.33;120.34;-37.70;34.78;-128.88;3.56;20.25
-0.26;-1.04;0.39;97.50;-89.51;48.74;-124.98;1.41;21.52
-0.28;-1.12;0.66;79.70;-159.48;80.62;-121.29;-2.81;23.78
-0.15;-1.19;0.72;170.36;-238.86;81.67;-115.60;-8.75;25.90
-0.42;-1.01;0.70;307.92;-306.92;74.80;-105.68;-16.72;28.00
-0.65;-1.05;0.74;291.58;-501.25;93.07;-96.59;-29.25;30.51
-0.68;-0.97;0.73;375.56;-501.25;212.31;-84.68;-42.47;36.67
-0.55;-1.02;0.47;501.11;-411.44;372.07;-71.12;-51.70;46.34
-0.29;-0.99;0.33;494.04;-280.78;499.14;-57.29;-58.13;60.31
0.13;-0.94;0.11;405.35;-200.35;468.62;-47.34;-62.21;72.50
0.11;-0.76;0.59;234.92;-356.69;318.07;-41.12;-70.49;81.09
-0.33;-0.60;0.87;195.64;-453.64;215.12;-35.47;-81.28;87.11
-0.55;-0.65;0.81;243.76;-319.74;293.29;-29.06;-87.38;94.74
-0.12;-0.74;1.08;314.63;-27.42;411.70;-20.47;-86.31;106.26
-0.03;-0.56;0.86;307.35;-60.06;334.40;-12.28;-86.21;115.63
-0.10;-0.47;0.71;185.47;-31.24;277.91;-7.18;-85.31;123.96
-0.24;-0.46;0.89;56.27;-122.23;217.32;-6.00;-86.64;129.83
-0.14;-0.52;1.22;41.87;-96.81;198.65;-5.18;-87.38;135.19
0.10;-0.61;1.32;58.07;-72.95;150.25;-4.01;-87.62;139.25
0.07;-0.59;1.25;99.76;-78.95;67.65;-1.77;-87.99;141.08
-0.20;-0.54;1.12;97.55;-122.08;23.38;0.49;-89.45;141.73
-0.10;-0.47;1.24;117.78;-55.09;37.04;3.10;-89.00;142.70
0.05;-0.38;1.23;181.09;-17.44;9.61;7.68;-87.73;142.96
0.08;-0.36;1.07;188.97;-23.77;-36.93;11.99;-86.64;142.00
-0.07;-0.28;1.11;152.72;-58.89;-97.66;16.12;-86.64;138.98
-0.29;-0.17;1.10;143.47;-62.11;-67.63;19.60;-86.36;137.08
-0.04;-0.15;1.05;138.27;36.64;-12.41;22.71;-83.62;136.75
0.15;-0.08;1.12;114.68;23.88;-48.39;25.22;-81.46;135.44
-0.07;-0.02;1.14;77.61;-52.17;-68.56;26.83;-81.19;133.52
-0.10;0.04;1.15;68.68;-25.30;-23.49;28.08;-80.12;132.91
0.07;0.08;1.08;65.08;23.85;2.42;29.38;-77.94;132.98
0.22;0.03;1.08;17.72;37.07;-8.28;29.29;-75.62;132.76
0.14;-0.02;1.28;-28.39;25.23;-33.08;27.94;-73.57;131.86
0.06;-0.10;1.47;-35.75;-12.37;-59.80;26.22;-72.52;130.01
0.00;-0.10;1.54;-6.98;-12.66;-84.64;25.44;-71.40;127.72
0.07;-0.06;1.33;26.22;55.20;-97.46;25.58;-68.57;125.09
-0.00;-0.08;1.30;16.45;68.15;-140.80;25.43;-65.40;121.29
-0.17;-0.08;1.47;32.95;-172.40;-210.94;25.77;-68.69;115.38
-0.17;-0.15;1.38;84.51;-196.78;-208.62;27.29;-72.20;109.96
-0.21;-0.04;1.47;161.41;-204.14;-192.22;31.15;-76.20;104.58
-0.38;0.12;0.84;243.56;-42.03;-65.93;37.08;-75.36;102.80
0.34;0.13;0.65;147.69;14.78;-13.98;40.40;-73.94;102.42
0.31;0.08;0.79;27.00;-218.14;-174.10;40.50;-79.48;97.02
-0.32;0.20;1.11;-0.59;-333.65;-168.27;39.83;-86.44;92.48
-0.04;0.19;1.13;52.43;-171.22;-69.41;40.61;-89.20;90.61
0.23;0.24;1.17;93.58;-132.52;-73.87;42.46;-91.11;88.61
0.17;0.31;0.84;120.89;-42.81;-44.57;45.04;-90.55;87.45
0.32;0.37;0.60;67.69;-3.22;-33.37;46.36;-89.20;86.55
0.32;0.41;0.54;-22.45;58.76;-31.20;45.36;-86.23;85.71
0.25;0.44;0.51;-83.11;103.37;-3.63;42.93;-82.16;85.61
0.13;0.33;0.88;-146.21;80.90;21.47;38.57;-78.51;86.19
0.22;0.22;1.01;-123.93;88.26;43.12;34.35;-74.54;87.49
0.30;0.07;1.04;-146.45;134.82;26.20;29.85;-69.79;88.20
0.24;0.13;1.14;-148.22;89.72;-25.12;25.43;-66.24;87.52
-0.03;0.04;1.20;-129.09;89.25;-5.86;18.51;-60.42;87.22
0.18;0.00;1.40;-114.86;10.32;-19.66;14.99;-59.07;86.67
0.20;-0.08;1.38;-49.90;-27.50;-45.06;13.36;-58.75;85.50
0.08;0.01;1.26;3.96;-20.64;-47.31;13.21;-58.21;84.17
0.04;0.02;1.11;11.63;-5.21;-19.03;13.28;-57.23;83.66
0.21;0.05;1.22;13.35;-35.53;-17.98;13.41;-57.21;83.17
0.14;0.06;1.11;28.74;-14.34;-27.90;14.32;-56.77;82.06
0.10;0.08;1.07;21.75;-1.28;-25.87;14.68;-55.77;81.36
0.03;0.11;1.10;-1.61;5.11;-17.20;14.46;-54.55;80.89
0.06;0.07;1.22;-14.91;-13.38;-12.94;13.84;-53.86;80.54
0.05;0.02;1.34;-8.27;-24.99;-17.66;13.35;-53.51;80.05
0.05;0.01;1.41;33.26;-61.67;-15.80;13.93;-54.06;79.64
0.17;0.02;1.50;99.69;-77.54;-41.32;16.41;-55.23;78.48
0.06;-0.10;1.43;145.70;-111.70;-39.61;19.85;-57.13;77.41
0.47;-0.12;1.64;192.42;-152.20;-70.48;24.48;-60.31;75.51
0.39;-0.02;1.51;317.84;-260.49;-199.06;33.64;-67.31;69.34
-0.06;0.37;0.73;374.82;-22.38;-122.13;43.39;-66.50;66.04
0.12;0.50;0.54;243.56;70.73;-61.74;49.48;-63.50;64.44
0.10;0.58;0.85;161.52;-18.55;-91.72;53.39;-62.80;61.96
0.12;0.47;1.11;209.56;27.25;-73.51;58.29;-60.91;59.97
0.33;0.43;0.81;296.07;190.59;-51.35;65.07;-55.14;58.64
0.27;0.31;0.63;253.75;194.15;-97.51;70.87;-49.22;56.01
0.03;0.52;0.82;255.82;192.29;-78.32;76.60;-43.36;53.97
0.18;0.51;0.68;337.79;226.91;-60.91;84.62;-36.66;52.33
0.33;0.55;0.38;344.31;225.71;-121.86;94.14;-29.47;48.55
-0.12;0.71;0.29;314.92;206.90;-134.77;101.79;-23.27;44.91
-0.17;0.77;0.44;247.93;155.16;-105.66;107.35;-18.54;42.06
-0.15;0.82;0.52;218.40;199.63;-92.57;112.20;-12.56;39.46
-0.30;0.94;0.61;207.47;127.14;-88.80;116.16;-8.85;37.16
-0.48;0.99;0.47;159.93;58.70;-56.22;118.99;-6.76;35.64
-0.35;1.09;0.19;124.91;62.70;-4.03;121.32;-4.60;35.52
-0.32;1.01;0.04;0.82;-66.78;-48.56;120.32;-5.87;34.26
-0.55;1.13;0.34;-146.56;-57.57;38.85;115.07;-6.86;35.31
-0.26;1.11;0.65;-127.87;-50.78;49.15;109.89;-8.10;36.83
-0.43;1.11;0.33;-224.63;-124.69;26.28;103.08;-10.78;37.52
-0.63;0.95;0.47;-422.53;-230.77;110.49;90.24;-16.41;40.61
-0.30;0.75;0.57;-494.83;-169.90;217.23;76.15;-20.32;46.48
0.07;0.67;0.45;-499.20;-73.93;248.31;62.96;-21.87;52.93
0.45;0.43;0.33;-499.20;-71.07;214.52;48.57;-24.00;58.94
0.58;0.32;0.47;-499.20;-96.49;112.25;35.23;-26.71;61.86
0.33;0.29;0.53;-499.20;-130.99;6.94;21.20;-30.20;62.05
-0.03;-0.38;0.53;-499.20;-142.90;22.69;6.88;-33.35;62.66
0.28;-1.17;1.40;-499.20;-131.15;91.56;-8.63;-36.66;65.41
0.48;-0.49;1.98;-499.20;-131.28;-36.77;-22.38;-39.75;64.38
-0.18;-0.15;1.08;-226.39;-18.55;-12.07;-28.28;-39.30;64.04
-0.18;-0.51;0.66;-261.57;67.45;150.94;-35.01;-36.61;67.97
0.51;-0.67;1.33;-325.90;137.11;184.71;-43.65;-32.41;73.14
0.65;-0.51;1.54;-83.00;76.65;4.69;-45.31;-30.01;73.27
-0.01;-0.37;0.71;-49.52;47.26;-81.26;-46.21;-28.19;71.16
-0.35;-0.36;0.56;-193.87;106.35;13.27;-51.04;-24.29;71.53
-0.24;-0.75;0.79;-363.82;135.74;108.11;-60.37;-20.04;74.45
0.18;-0.92;1.02;-425.70;213.23;124.14;-72.42;-13.48;78.17
0.17;-1.00;1.21;-410.95;139.85;-16.96;-82.57;-9.59;77.72
-0.10;-0.86;1.04;-341.05;57.34;-101.09;-91.01;-7.77;74.89
-0.23;-0.86;0.82;-326.34;29.86;-65.05;-98.30;-6.69;73.19
-0.23;-0.70;0.53;-322.37;20.30;-3.15;-106.03;-5.80;73.11
0.00;-0.79;0.42;-300.50;72.70;40.55;-113.40;-3.69;74.24
0.12;-0.95;0.27;-291.63;-68.41;-1.22;-126.21;-6.94;74.18
-0.01;-1.33;0.39;-279.99;-65.85;-38.35;-132.83;-8.60;73.11
-0.00;-1.39;0.54;-208.45;-18.25;-61.32;-137.06;-8.91;71.45
-0.12;-1.17;0.59;-5.67;31.80;-78.86;-135.66;-7.69;69.01
-0.22;-1.01;0.58;184.71;-42.46;-58.12;-129.27;-8.46;67.50
-0.14;-1.12;0.52;298.51;-90.61;-40.10;-119.68;-10.68;66.37
0.01;-1.15;0.54;412.10;-99.16;-11.78;-107.67;-13.10;66.06
0.20;-1.26;0.58;501.34;-91.35;-35.35;-93.41;-15.38;65.10
0.29;-1.05;0.61;501.34;-129.67;-131.57;-79.26;-18.70;61.55
0.23;-0.98;0.40;501.34;-154.49;-215.99;-65.55;-22.61;55.72
-0.05;-0.85;0.35;501.34;-182.83;-251.32;-52.27;-26.94;48.93
-0.13;-0.56;0.37;501.34;-170.34;-184.12;-36.96;-31.42;43.22
0.15;-0.32;0.52;427.55;-5.62;-61.25;-25.00;-31.15;41.51
0.48;-0.23;0.81;310.22;31.42;-42.48;-16.79;-30.23;40.41
0.53;-0.10;1.05;193.58;34.43;-102.47;-11.21;-29.17;37.54
0.22;-0.01;1.05;152.91;62.15;-93.06;-7.10;-27.24;35.12
0.20;-0.08;1.14;75.55;135.23;-17.90;-5.03;-23.30;34.63
0.32;-0.08;1.33;66.07;203.49;9.30;-3.17;-17.51;34.89
0.26;-0.08;1.18;78.14;268.18;-9.60;-1.18;-10.55;34.64
0.25;-0.04;0.83;43.46;449.63;4.94;-0.05;1.23;34.78
0.34;0.07;0.80;-6.97;499.28;-54.82;-0.26;20.35;32.58
0.12;-0.04;0.90;5.70;499.28;-140.97;-0.14;33.01;28.78
-0.74;-0.08;1.12;-35.67;355.48;-205.58;-1.13;42.38;23.23
-0.99;-0.00;0.85;19.89;467.54;-51.95;-0.59;54.89;21.82
-1.15;0.02;0.75;27.32;499.28;124.42;0.16;68.13;25.18
-0.59;-0.17;0.63;0.69;499.28;221.75;0.02;80.71;31.17
-0.11;-0.19;0.90;-43.14;499.28;94.20;-1.37;92.91;33.81
-0.81;-0.17;1.33;107.29;397.66;-32.56;1.30;101.75;32.96
-0.93;-0.00;0.55;235.64;407.71;-21.08;7.73;112.09;32.37
-1.01;-0.09;0.21;216.82;499.28;-20.22;13.44;125.01;31.81
-1.01;-0.31;0.32;54.85;379.23;-32.12;14.53;134.82;30.84
-1.05;-0.10;0.43;17.18;247.56;-53.69;14.62;139.95;29.39
-1.21;0.03;0.28;41.06;201.19;-38.27;15.48;144.18;28.32
-1.27;-0.02;0.13;70.47;228.96;40.71;16.95;148.79;29.38
-0.93;-0.15;0.01;0.74;168.50;43.55;16.44;151.88;30.56
-1.09;-0.06;0.15;-24.95;105.45;27.97;15.40;153.22;31.31
-1.12;-0.03;0.10;17.95;91.65;45.65;15.52;154.16;32.50
-1.07;-0.02;0.14;52.62;54.36;26.72;16.64;154.20;33.25
-1.35;0.02;0.22;71.93;-29.28;4.95;18.16;151.96;33.37
-1.79;-0.11;0.46;45.95;-303.04;13.67;19.14;141.16;33.80
-1.29;-0.20;0.15;24.43;-368.93;9.65;19.27;129.72;34.07
-1.35;-0.00;0.54;-62.18;-501.25;-105.46;17.30;115.72;31.33
-1.55;0.05;0.84;-92.13;-501.25;-143.86;14.45;100.85;27.30
-1.34;0.04;0.71;-31.23;-501.25;-114.47;13.33;86.30;24.09
-1.32;0.04;0.60;19.69;-501.25;-30.68;13.58;73.08;23.30
-1.06;0.05;0.53;-7.50;-501.25;130.95;13.14;59.10;26.96
-0.69;-0.15;0.94;-79.67;-501.25;191.67;10.67;45.30;32.14
-0.00;-0.23;0.56;-64.51;-501.25;118.26;8.29;31.14;35.33
0.45;-0.22;1.05;-69.37;-501.25;-80.91;5.86;14.89;32.82
0.25;-0.16;1.24;-89.09;-501.25;-261.19;3.17;0.64;25.51
0.04;-0.17;1.08;-117.46;-501.25;-278.90;-0.06;-12.18;18.26
0.16;-0.13;1.01;-65.28;-493.86;-112.15;-1.97;-25.65;15.12
0.43;-0.25;1.29;-44.98;-466.28;-109.84;-3.33;-38.24;12.04
0.38;-0.16;1.00;-63.70;-501.25;-167.87;-5.02;-50.61;7.68
0.38;-0.03;0.66;16.71;-501.25;-102.32;-4.49;-63.94;4.81
0.59;-0.01;0.47;90.43;-448.37;-55.43;-2.10;-75.11;3.37
0.66;0.07;0.26;77.92;-474.37;-75.35;0.01;-86.96;1.41
0.93;0.00;0.15;15.43;-382.69;-3.93;0.81;-106.72;1.20
0.91;-0.05;0.31;-12.34;-391.83;-38.10;0.39;-117.08;0.10
0.97;-0.04;0.27;17.14;-384.96;-45.75;0.81;-126.37;-1.14
0.84;-0.05;0.21;91.37;-346.14;-93.66;3.06;-134.12;-3.57
0.65;0.14;-0.17;178.02;-300.46;-56.53;8.21;-141.53;-5.15
0.81;0.01;-0.38;266.22;-126.12;32.07;15.12;-144.33;-4.29
0.90;-0.03;-0.49;243.29;-99.18;0.51;21.17;-146.40;-4.27
0.79;0.05;-0.75;167.17;-31.33;5.36;26.30;-146.94;-4.13
0.92;-0.01;-0.80;75.93;181.02;53.82;27.76;-141.65;-2.62
1.03;-0.10;-0.52;-37.67;352.76;27.68;25.87;-130.69;-1.79
0.97;-0.05;-0.22;-70.31;382.46;4.57;23.35;-119.58;-1.66
0.95;-0.05;-0.02;-58.60;445.52;3.97;21.27;-107.16;-1.56
0.93;-0.02;0.08;-45.14;499.28;18.57;19.67;-93.98;-1.07
0.85;-0.02;0.29;-37.64;499.28;42.63;18.22;-79.79;0.12
0.72;0.03;0.41;-33.58;499.28;62.31;17.03;-66.65;1.74
0.53;0.01;0.42;-45.58;499.28;110.16;15.46;-52.64;4.82
0.55;-0.14;0.64;-118.01;499.28;117.72;11.89;-39.07;8.00
0.49;-0.29;0.94;-168.83;499.28;83.26;7.12;-26.00;10.17
0.38;-0.35;1.06;-105.28;499.28;42.72;3.51;-10.62;11.49
0.02;-0.26;1.35;-32.69;373.20;-60.25;2.33;-0.18;9.80
-0.24;-0.10;1.22;118.69;314.21;-37.96;5.23;8.03;8.82
-0.09;-0.07;0.92;178.83;372.75;45.14;9.95;18.20;10.08
0.01;0.01;0.88;204.62;462.75;93.38;15.17;30.07;12.60
-0.04;-0.09;1.00;148.42;364.97;32.33;18.70;39.17;13.48
-0.24;-0.10;1.20;69.35;215.48;-7.69;20.08;44.30;13.27
-0.22;-0.14;1.43;58.69;197.19;-9.70;21.19;48.99;13.00
-0.29;-0.05;1.54;47.31;87.97;-48.65;21.95;50.46;11.73
-0.32;-0.01;1.44;30.39;50.38;-22.50;22.43;51.23;11.03
-0.16;-0.06;1.37;-7.00;67.10;11.93;21.74;52.17;11.37
-0.13;-0.03;1.50;-49.29;21.48;-11.78;20.03;51.77;11.06
-0.33;0.00;1.49;-81.58;-56.77;-56.54;17.39;49.43;9.48
-0.44;-0.13;1.35;-171.41;-105.42;-41.67;12.59;46.09;8.39
-0.23;-0.23;1.21;-299.05;-76.11;-21.14;3.95;43.26;7.80
-0.14;-0.18;1.12;-450.33;-106.25;-24.07;-8.65;39.60;7.13
0.02;-0.30;0.96;-499.20;-221.93;-68.10;-21.54;33.14;5.36
0.05;-0.42;0.80;-499.20;-250.19;-77.64;-35.33;25.56;3.18
-0.01;-0.74;0.97;-499.20;-305.07;-52.51;-54.94;13.10;1.08
-0.02;-0.75;0.83;-499.20;-308.83;-69.06;-68.37;4.38;-0.85
0.03;-0.67;0.65;-499.20;-225.51;-6.62;-81.10;-1.71;-1.03
0.13;-0.74;0.47;-450.56;-156.11;36.51;-92.43;-5.92;-0.04
0.13;-0.97;0.38;-355.64;-150.84;14.51;-101.23;-9.90;0.35
0.08;-1.03;0.33;-272.79;-115.30;6.16;-108.06;-12.94;0.52
0.06;-0.90;0.16;-169.14;-51.53;47.14;-111.91;-14.10;1.79
0.11;-1.10;0.14;-85.90;9.66;78.40;-113.48;-13.66;3.91
0.12;-1.00;0.06;-42.86;-23.10;32.69;-113.94;-14.13;4.79
0.14;-1.31;0.13;9.58;1.81;7.73;-112.94;-13.90;5.03
0.10;-1.09;0.23;71.82;18.20;-9.63;-110.32;-13.25;4.78
0.02;-0.90;0.32;226.59;87.33;19.67;-103.28;-10.61;5.33
0.08;-1.04;0.50;343.99;65.17;39.00;-93.33;-8.73;6.39
0.10;-1.03;0.60;468.76;25.28;41.43;-80.18;-7.95;7.50
0.11;-1.09;0.60;501.34;5.23;38.52;-66.45;-7.73;8.54
0.06;-1.01;0.43;501.34;107.20;73.67;-53.14;-4.79;10.53
-0.04;-0.88;0.38;501.34;205.51;137.94;-40.59;0.58;14.12
0.05;-0.93;0.52;501.34;173.83;159.33;-27.18;5.30;18.58
0.20;-0.47;0.79;501.34;184.14;142.20;-11.92;10.60;22.99
0.05;-0.38;0.97;501.34;55.17;21.44;0.69;11.75;23.55
-0.06;-0.29;0.86;486.89;15.83;-100.36;13.68;12.02;20.74
-0.20;0.01;0.82;420.88;130.79;-70.73;24.14;15.39;18.90
-0.34;0.17;1.15;217.64;115.66;-13.40;34.46;21.04;18.23
-0.14;0.00;1.17;106.91;101.10;-14.77;36.60;23.43;17.83
-0.13;0.07;1.29;3.00;-16.51;-82.53;36.00;22.63;15.60
-0.31;0.03;1.30;-46.89;-47.39;-82.36;34.01;21.13;13.30
-0.39;-0.02;1.36;-53.29;-4.25;-9.05;31.96;20.92;13.06
-0.25;-0.03;1.36;-34.79;-1.91;28.28;30.34;20.65;13.85
-0.07;-0.01;1.16;-29.23;-49.06;-11.75;28.81;18.77;13.48
-0.10;0.01;1.14;-63.63;-118.81;-82.10;26.62;15.46;11.34
-0.30;-0.03;1.16;-82.44;-145.07;-97.69;23.88;11.60;8.70
-0.36;-0.08;1.21;-62.30;-103.90;-45.41;21.70;8.92;7.48
-0.25;-0.13;1.18;-25.35;-54.95;5.24;20.49;7.51;7.62
-0.12;-0.10;1.15;8.62;-31.42;8.71;20.22;6.64;7.85
-0.13;-0.08;1.12;44.71;-32.48;0.11;20.88;5.80;7.86
-0.14;-0.05;0.99;59.75;-6.08;12.54;21.99;5.68;8.20
-0.12;-0.02;0.94;36.11;15.86;28.05;22.49;6.13;8.95
-0.08;-0.04;1.07;13.38;3.88;35.90;22.38;6.19;9.99
0.08;-0.15;1.09;24.88;30.30;25.76;22.44;6.80;10.69
-0.20;-0.08;1.17;231.46;9.46;-45.20;28.05;7.10;9.47
-0.05;0.07;0.90;184.65;55.19;-4.91;32.28;8.42;9.34
-0.17;0.11;1.10;175.46;85.16;-12.91;36.37;10.66;8.99
-0.17;0.14;1.19;192.83;95.68;7.12;40.67;13.04;9.18
-0.21;0.13;1.30;236.74;47.30;-1.81;46.22;14.20;9.13
-0.18;0.22;0.95;314.56;106.49;4.97;53.84;16.91;9.26
-0.21;0.26;1.03;350.22;134.93;-5.96;61.92;20.19;9.11
-0.30;0.37;0.97;348.86;235.95;9.55;70.24;26.28;9.37
-0.22;0.38;1.07;340.60;175.60;45.29;79.51;31.26;10.77
-0.24;0.47;0.88;300.86;104.78;26.80;86.03;33.51;11.47
-0.39;0.60;0.89;285.00;135.23;25.44;92.35;36.71;12.15
-0.36;0.56;0.84;272.37;100.52;43.70;98.22;38.92;13.33
-0.32;0.61;0.69;265.95;100.44;20.04;103.66;40.98;13.85
-0.27;0.63;0.56;242.76;146.35;-20.35;108.74;44.29;13.30
-0.37;0.75;0.60;212.53;135.11;-24.41;113.16;47.42;12.62
-0.39;0.67;0.63;187.84;100.91;-15.26;116.35;49.37;12.22
-0.39;0.64;0.53;158.07;-13.19;-23.77;118.90;48.40;11.58
-0.29;0.64;0.54;127.11;-80.84;-89.64;120.88;45.42;8.98
-0.56;1.00;0.40;158.56;22.75;-97.98;123.74;45.57;6.24
-0.52;0.83;0.49;162.71;80.78;-32.04;126.36;47.23;5.37
-0.44;0.79;0.33;107.93;55.95;-27.96;127.50;48.13;4.65
-0.44;0.78;0.35;15.27;21.77;-32.33;126.25;48.17;3.77
-0.56;0.84;0.42;-31.66;-7.24;-29.34;123.70;47.50;2.98
-0.58;0.89;0.42;-83.72;-58.28;14.05;119.92;45.54;3.35
-0.49;0.89;0.29;-174.95;-97.47;40.39;113.87;42.50;4.44
-0.50;0.84;0.52;-274.15;-111.06;42.28;104.87;39.01;5.62
-0.46;0.80;0.62;-358.88;-152.34;22.69;93.30;34.26;6.28
-0.46;1.03;0.76;-418.63;-205.77;30.80;81.16;28.42;7.11
-0.43;0.61;0.89;-428.54;-269.80;73.09;68.70;21.03;9.09
-0.21;0.50;0.82;-421.52;-290.80;56.98;57.11;13.38;10.57
-0.35;0.39;0.99;-416.28;-248.34;41.10;45.28;6.82;11.68
-0.23;0.34;0.88;-428.65;-171.62;50.68;33.79;2.52;12.99
-0.17;0.23;0.93;-464.74;-188.78;65.79;20.60;-2.54;14.84
-0.01;0.08;0.91;-485.06;-171.76;46.25;7.45;-7.02;16.09
-0.04;-0.09;0.97;-492.33;-142.44;8.16;-5.35;-10.47;16.30
0.10;-0.12;1.23;-420.89;-106.93;69.23;-21.85;-14.53;19.07
0.15;-0.25;1.44;-295.06;-114.58;-15.41;-29.40;-17.38;18.65
-0.06;-0.19;1.49;-96.50;-125.53;-61.93;-31.50;-20.31;16.98
-0.17;-0.17;1.21;18.30;-65.45;-13.55;-30.55;-21.43;16.63
-0.00;-0.16;0.94;46.80;2.99;40.65;-28.89;-20.92;17.72
0.05;-0.18;1.03;-26.39;-12.55;-6.53;-29.85;-21.18;17.38
0.03;-0.17;1.13;-13.26;-0.83;-4.07;-29.79;-20.81;17.27
-0.03;-0.17;1.18;23.47;12.46;13.15;-28.75;-20.05;17.61
-0.03;-0.17;1.15;58.85;43.49;47.10;-26.78;-18.47;18.88
0.00;-0.17;1.07;52.62;77.59;73.73;-24.88;-15.82;21.10
0.04;-0.17;1.12;28.63;81.36;60.11;-23.80;-13.38;22.72
-0.00;-0.13;1.14;10.94;58.12;36.10;-23.17;-11.57;23.69
-0.02;-0.15;1.19;6.13;22.26;9.47;-22.68;-10.73;23.95
-0.07;-0.15;1.17;11.73;15.49;0.69;-22.06;-10.06;23.97
-0.12;-0.15;1.17;17.08;19.63;9.87;-21.30;-9.24;24.23
-0.09;-0.15;1.19;25.73;22.21;21.52;-20.35;-8.41;24.79
-0.04;-0.14;1.18;32.53;27.02;25.00;-19.21;-7.49;25.47
-0.02;-0.13;1.19;31.76;-21.06;-2.59;-18.08;-7.89;25.39
-0.10;-0.12;1.11;23.12;-24.46;-14.47;-17.17;-8.34;24.98
-0.09;-0.11;1.12;1.89;-16.26;10.31;-16.88;-8.52;25.25
-0.04;-0.14;1.13;-9.12;-23.50;15.36;-16.92;-8.93;25.67
0.01;-0.14;1.18;-2.62;-20.98;6.95;-16.79;-9.32;25.86
0.01;-0.14;1.19;9.27;-16.58;-2.70;-16.34;-9.58;25.78
-0.03;-0.16;1.15;17.49;-12.28;-11.37;-15.71;-9.69;25.48
-0.03;-0.13;1.15;14.98;-21.32;-13.84;-15.12;-10.03;25.10
-0.04;-0.15;1.12;6.14;-3.32;-3.81;-14.80;-9.88;25.00
-0.05;-0.12;1.13;-3.26;14.14;6.88;-14.70;-9.27;25.18
-0.03;-0.11;1.16;1.06;27.10;13.47;-14.48;-8.31;25.56
-0.01;-0.11;1.14;15.31;24.65;1.99;-13.85;-7.41;25.62
-0.05;-0.11;1.13;19.02;25.17;-4.85;-13.19;-6.58;25.49
-0.06;-0.10;1.09;11.70;32.30;-2.85;-12.72;-5.53;25.41
-0.06;-0.12;1.11;10.65;66.18;7.88;-12.30;-3.61;25.63
0.02;-0.20;1.04;27.21;182.67;18.51;-11.57;1.09;26.11
0.17;-0.22;0.87;74.94;495.91;27.15;-9.60;14.02;26.84
0.04;0.08;0.77;199.12;499.28;47.18;-4.01;26.90;28.11
-0.22;0.27;1.06;243.93;499.28;-125.69;2.52;39.27;24.85
-0.59;0.24;0.40;191.90;405.88;-183.37;8.02;50.46;19.71
-0.90;0.06;0.20;19.84;499.28;-120.62;8.50;65.61;16.09
-0.97;0.27;0.43;-39.70;499.28;-50.65;7.54;78.10;14.78
-1.08;0.14;0.71;-40.57;499.28;4.04;6.41;90.78;14.88
-1.24;-0.09;0.83;-34.37;483.01;81.39;5.36;102.34;17.00
-0.63;-0.48;0.65;49.11;343.71;39.70;6.19;110.31;18.11
-1.09;-0.16;0.23;178.94;207.51;-19.06;10.66;115.00;17.60
-1.02;-0.14;0.26;75.02;184.35;-40.21;12.24;118.77;16.55
-1.12;-0.06;0.33;-5.38;109.88;-39.84;11.80;120.71;15.48
-1.26;0.07;0.34;7.17;26.53;4.60;11.80;120.44;15.60
-1.06;-0.04;0.41;38.48;-75.39;26.59;12.67;117.15;16.40
-1.33;-0.01;0.34;48.83;-191.85;-6.06;13.70;111.24;16.23
-1.59;-0.02;0.57;50.48;-355.22;39.35;14.80;100.66;17.34
-1.45;-0.04;0.55;62.69;-501.25;134.16;16.08;87.23;20.82
-1.17;-0.02;0.51;15.44;-501.25;170.43;16.15;73.54;25.43
-1.05;-0.04;0.85;0.66;-501.25;136.71;15.82;59.80;29.12
-1.07;0.10;1.07;92.42;-501.25;153.35;17.91;46.67;33.10
-0.91;0.22;0.41;121.89;-501.25;149.78;21.09;33.09;37.30
0.49;-0.13;0.67;83.40;-501.25;261.84;22.66;19.03;44.11
0.81;0.03;0.05;-143.03;-444.57;163.73;17.89;3.45;49.18
0.29;0.17;0.88;-310.30;-347.45;27.35;9.49;-6.12;49.92
0.17;0.15;1.08;-277.38;-365.61;7.56;2.37;-15.47;50.12
0.52;-0.07;1.13;-187.98;-139.13;40.40;-2.70;-19.31;51.21
0.43;-0.06;1.45;-73.79;-109.85;-20.48;-4.63;-22.15;50.65
0.19;0.02;1.20;18.95;-135.36;-41.45;-4.02;-25.46;49.54
0.21;0.06;0.97;53.20;-71.27;21.65;-2.47;-27.07;50.12
0.39;0.02;0.95;-24.97;-28.26;-9.22;-3.68;-28.40;49.64
0.26;0.02;1.04;-25.43;-65.83;2.95;-4.31;-29.97;49.73
0.43;-0.02;1.03;-28.48;-20.32;15.75;-4.96;-30.33;50.14
0.52;-0.06;1.08;-32.28;8.72;-4.10;-5.85;-29.97;50.01
0.38;-0.02;1.11;-12.65;10.38;-20.76;-6.08;-29.46;49.45
0.38;-0.02;1.02;4.18;57.22;1.96;-5.87;-27.82;49.50
0.40;-0.04;1.00;-0.21;126.01;7.73;-5.79;-24.35;49.71
0.52;-0.05;0.92;-7.60;240.20;-10.64;-5.92;-18.07;49.43
0.59;-0.07;0.84;4.77;405.23;-82.47;-5.73;-7.64;47.20
0.41;-0.09;0.88;42.95;483.68;-162.57;-4.56;4.85;42.81
0.11;-0.09;0.92;39.53;480.03;-236.56;-3.52;17.34;36.42
-0.27;0.05;1.03;29.47;394.46;-262.64;-2.65;27.32;29.59
-0.42;0.21;1.02;91.53;499.28;-111.48;1.15;46.73;25.13
-0.10;0.15;0.73;86.28;499.28;-69.55;3.62;59.13;23.26
-0.39;0.05;1.01;77.60;499.28;-144.30;5.56;71.07;19.50
-0.83;0.07;0.89;109.11;480.97;-143.74;8.39;83.20;15.62
-0.78;0.01;0.66;109.82;499.28;-102.57;11.13;95.73;12.85
-0.89;-0.01;0.73;87.89;401.51;-132.50;13.14;105.05;9.41
-1.09;0.07;0.71;89.96;402.03;-83.95;15.39;115.07;7.06
-1.13;0.06;0.57;63.31;372.94;-53.77;16.80;123.86;5.61
-1.19;0.07;0.49;37.09;342.21;-20.28;17.45;131.40;5.08
-1.18;-0.00;0.60;-16.59;225.04;-4.76;16.61;136.64;4.94
-1.37;0.01;0.60;-4.36;100.01;2.68;16.16;137.97;5.01
-1.11;-0.07;0.50;22.25;158.82;89.70;16.36;140.51;7.34
-0.75;-0.12;0.55;6.01;102.49;21.46;16.08;141.38;7.92
-1.12;0.08;0.51;19.24;27.98;-27.58;16.31;140.51;7.21
-1.15;0.11;0.37;28.05;111.91;34.74;16.81;142.00;8.14
-0.92;-0.02;0.41;-15.47;55.51;35.39;16.05;141.93;9.10
-0.99;-0.00;0.56;-49.64;-70.93;-22.30;14.46;138.49;8.52
-1.21;0.09;0.63;-13.66;-161.85;-28.82;13.86;132.63;7.74
-1.20;0.06;0.60;-1.70;-194.19;28.01;13.57;125.30;8.61
-1.08;0.08;0.54;-31.37;-231.50;70.94;12.56;118.10;10.45
-0.90;-0.03;0.61;-109.82;-357.01;51.73;9.38;107.38;11.85
-0.83;0.01;0.79;-150.88;-499.45;1.59;5.21;92.94;11.89
-0.65;-0.06;0.84;-150.16;-501.25;-59.60;1.23;79.03;10.34
-0.69;0.01;0.93;-101.96;-438.84;-91.63;-1.58;66.13;7.78
-0.77;0.08;0.93;-17.17;-324.99;-45.09;-1.95;56.96;6.56
-0.74;0.01;0.83;33.11;-266.90;-14.82;-1.07;49.85;6.18
-0.71;0.01;0.58;32.08;-199.53;6.83;-0.18;44.57;6.36
-0.57;0.06;0.55;22.68;-19.65;65.93;0.46;44.04;8.07
-0.53;0.00;0.66;-37.99;14.17;57.97;-0.70;44.36;9.87
-0.49;-0.07;1.02;-116.82;-38.89;45.10;-3.83;42.92;11.09
-0.35;-0.06;1.35;-76.42;-115.50;-8.42;-5.73;39.40;10.87
-0.48;0.01;1.28;30.39;-150.90;-60.90;-4.78;34.87;9.17
-0.58;0.11;1.09;50.98;-185.07;-49.70;-3.26;29.80;7.82
-0.44;0.05;0.99;-20.65;-221.12;-15.28;-3.68;24.02;7.43
-0.25;-0.01;1.14;-70.08;-207.24;-29.31;-5.53;18.10;6.61
-0.33;-0.04;1.23;-41.21;-191.28;-49.74;-6.54;12.97;5.26
-0.35;-0.05;1.13;-4.57;-144.48;-32.22;-6.57;9.22;4.39
-0.26;-0.06;1.02;4.01;-91.65;-28.41;-6.38;6.61;3.54
-0.34;-0.01;0.99;-16.13;-64.17;-25.12;-6.70;5.09;2.84
-0.32;-0.00;0.98;-31.14;-50.89;-0.44;-7.36;4.05;2.83
-0.21;-0.04;1.07;-35.34;-64.54;8.11;-8.18;2.48;3.04
-0.12;-0.07;1.11;-23.17;-96.81;-12.12;-8.69;-0.01;2.72
-0.14;-0.09;1.15;-25.43;-126.22;-38.73;-9.27;-3.23;1.67
-0.20;-0.08;1.19;-28.08;-129.57;-34.86;-9.89;-6.41;0.73
-0.14;-0.09;1.27;-20.45;-156.77;-14.35;-10.30;-10.31;0.34
-0.03;-0.18;1.42;-38.33;-351.65;-56.56;-12.23;-28.35;-2.65
0.05;-0.14;1.37;-11.67;-375.76;-47.98;-12.45;-39.24;-4.14
0.09;-0.10;1.31;-35.49;-431.67;-42.41;-13.23;-49.95;-5.29
0.25;-0.18;1.30;-57.84;-501.25;-40.99;-14.68;-62.90;-6.43
0.49;-0.29;1.20;-54.95;-501.25;-104.45;-16.04;-75.26;-9.25
0.45;-0.15;0.94;-26.02;-501.25;-141.80;-16.53;-87.47;-13.08
0.52;-0.06;0.75;23.66;-462.14;-73.05;-15.63;-98.60;-15.06
0.58;-0.01;0.81;23.78;-501.25;-76.48;-14.69;-110.60;-17.12
0.56;-0.02;0.52;-9.75;-501.25;-46.85;-14.68;-123.06;-18.43
0.82;-0.11;0.35;-20.80;-501.25;-26.83;-15.02;-134.59;-19.13
0.90;-0.09;0.19;-15.99;-468.99;-58.94;-15.30;-147.60;-20.96
0.78;-0.05;0.37;-33.96;-466.12;-66.10;-15.94;-158.23;-22.74
0.80;-0.04;0.22;-2.54;-416.09;-22.22;-15.73;-167.10;-23.32
0.91;-0.06;0.10;47.58;-306.11;-0.15;-14.18;-173.76;-23.32
0.93;-0.09;-0.04;61.02;-202.96;12.72;-12.33;-177.60;-22.97
0.96;-0.11;-0.07;40.54;-217.22;3.56;-11.20;-181.33;-22.87
0.94;-0.07;-0.16;-2.86;-179.74;7.97;-11.15;-184.55;-22.65
0.97;-0.05;-0.18;-6.28;-126.25;7.85;-11.17;-186.28;-22.43
0.84;-0.01;-0.20;0.19;-78.00;4.07;-10.96;-186.90;-22.31
0.89;-0.03;-0.28;6.45;-24.44;18.77;-10.63;-185.92;-21.80
0.99;-0.09;-0.28;-3.05;20.68;13.17;-10.65;-183.65;-21.43
0.99;-0.06;-0.24;-21.46;-9.06;-20.97;-11.09;-182.23;-22.00
0.93;-0.03;-0.25;-32.10;46.78;-26.38;-11.77;-179.41;-22.71
0.95;-0.01;-0.24;-9.87;181.16;-1.26;-11.83;-172.93;-22.75
1.03;-0.06;-0.16;-7.93;259.62;-8.94;-11.89;-164.51;-22.99
1.05;-0.09;-0.09;-36.25;322.33;-33.38;-12.71;-154.50;-23.89
0.97;-0.06;-0.01;-40.95;492.53;-32.19;-13.62;-140.11;-24.76
0.82;0.01;0.22;30.94;499.28;12.94;-12.09;-118.74;-24.23
0.79;-0.07;0.48;18.47;499.28;-26.16;-11.42;-104.26;-24.94
0.62;-0.01;0.60;6.59;490.04;-55.25;-11.02;-89.63;-26.48
0.35;0.17;0.65;6.76;499.28;13.14;-10.42;-75.10;-26.13
0.44;0.10;0.90;-10.68;484.15;71.82;-10.41;-61.26;-24.19
0.72;-0.06;1.16;-21.09;386.01;76.45;-10.82;-50.05;-22.05
0.96;-0.44;1.25;63.29;270.12;-14.64;-9.21;-42.76;-22.43
0.49;-0.04;1.05;108.05;283.37;13.68;-6.09;-34.61;-22.05
0.50;0.03;0.87;82.34;292.00;32.91;-3.69;-26.49;-21.12
0.33;0.03;1.06;36.82;193.07;17.03;-2.51;-20.62;-20.61
0.25;0.03;1.16;21.35;115.23;46.77;-1.87;-17.39;-19.35
0.77;0.14;1.23;41.93;100.85;84.65;-0.60;-14.86;-16.98
0.41;0.03;1.06;35.41;140.88;76.94;0.33;-11.39;-14.98
0.49;-0.07;1.08;-0.33;87.46;50.85;0.27;-9.22;-13.56
0.34;-0.11;1.22;-28.19;-8.95;14.81;-0.54;-9.55;-13.17
0.26;-0.03;1.24;19.76;13.42;27.87;-0.01;-9.22;-12.39
0.28;0.04;1.10;72.30;76.94;55.58;1.94;-7.28;-10.89
0.29;0.01;0.95;26.34;38.33;61.91;2.61;-6.45;-9.22
0.37;-0.07;1.12;-35.81;-9.06;36.39;1.45;-6.94;-8.13
0.33;-0.04;1.21;-23.18;-6.35;24.48;0.76;-7.26;-7.44
0.37;-0.03;1.16;22.91;16.44;35.61;1.30;-7.04;-6.52
0.53;-0.09;0.99;35.02;4.64;-25.25;2.17;-7.30;-7.22
0.32;0.02;0.98;-3.86;10.36;-9.80;2.04;-7.23;-7.49
0.27;0.04;1.06;-34.82;1.14;-0.83;1.11;-7.33;-7.51
0.33;-0.06;1.18;-38.56;-16.72;2.10;0.02;-7.92;-7.45
0.30;-0.02;1.15;-20.08;-31.24;-4.01;-0.52;-8.88;-7.56
0.35;-0.03;1.09;-14.22;-33.90;-4.41;-0.90;-9.92;-7.68
0.31;-0.02;1.12;-28.62;-37.59;3.32;-1.65;-11.02;-7.59
0.35;0.01;1.02;-39.49;-60.55;-1.26;-2.77;-12.96;-7.62
0.34;0.00;1.01;-73.31;-103.22;-1.93;-4.58;-15.70;-7.67
0.43;-0.03;1.01;-120.68;-192.66;10.51;-10.67;-25.65;-7.13
0.40;-0.02;0.94;-156.98;-211.91;10.94;-14.78;-31.41;-6.82
0.37;0.09;0.78;-190.86;-136.02;54.85;-19.62;-34.97;-5.29
0.41;0.01;0.53;-246.89;-31.50;116.28;-25.51;-35.81;-2.26
0.40;-0.20;0.63;-348.42;-73.93;144.39;-34.79;-37.64;1.78
0.57;-0.40;0.79;-409.14;-91.61;161.47;-45.25;-39.82;6.14
1.71;-0.83;0.10;-420.02;-64.74;156.57;-55.53;-41.90;10.21
0.57;-0.55;1.06;-394.48;-144.03;89.14;-66.78;-45.83;12.97
0.23;-0.43;0.96;-194.77;-71.76;79.30;-71.19;-47.06;15.19
-0.16;-0.64;0.97;-153.58;-27.86;168.83;-74.27;-46.72;19.58
0.70;-0.89;0.78;-231.44;-69.25;165.26;-79.52;-48.07;24.05
0.69;-0.84;0.45;-167.23;-58.86;106.92;-83.25;-49.28;27.04
0.33;-0.71;0.36;-169.87;-94.48;85.01;-86.83;-51.04;29.25
0.41;-1.07;0.50;-292.63;-149.96;87.78;-93.83;-54.28;31.62
0.18;-0.97;0.79;-259.35;-167.88;99.56;-99.72;-57.75;34.31
0.37;-0.96;0.50;-63.66;-43.01;147.30;-100.43;-58.06;38.43
0.41;-1.08;0.22;-35.52;9.62;135.76;-100.70;-56.96;42.64
0.48;-1.09;0.24;-134.34;-81.27;98.28;-103.24;-58.29;45.20
0.50;-1.04;0.21;-109.52;-48.99;54.62;-105.18;-58.86;46.67
0.56;-1.07;0.24;-99.63;-91.09;8.26;-106.87;-60.65;46.90
0.42;-1.08;0.27;-93.18;-41.13;-24.28;-108.35;-60.86;46.25
0.36;-1.01;0.32;-38.56;-20.02;-5.17;-108.33;-60.48;46.11
0.47;-1.11;0.45;1.79;-1.36;3.07;-107.12;-59.64;46.19
0.52;-1.15;0.44;89.56;9.62;-20.70;-103.61;-58.55;45.63
0.43;-1.04;0.36;177.06;61.86;-27.61;-97.22;-55.84;44.78
0.46;-1.08;0.39;204.27;75.33;-34.18;-90.70;-53.00;43.82
0.46;-1.07;0.50;248.14;86.78;-28.57;-83.52;-50.06;43.08
0.51;-1.03;0.45;328.98;179.22;-42.91;-73.77;-44.51;41.87
0.35;-0.96;0.70;375.20;244.18;-29.46;-63.21;-37.40;41.08
0.28;-0.94;0.65;456.27;278.59;11.56;-51.22;-29.76;41.38
0.13;-0.81;0.46;492.27;373.65;42.37;-37.77;-19.02;42.57
0.23;-0.81;0.91;388.19;374.29;86.78;-27.83;-9.26;44.82
0.31;-0.57;1.05;444.69;277.97;62.20;-15.53;-1.67;46.56
0.22;-0.76;1.12;417.15;218.53;9.39;-3.14;4.88;46.85
0.28;-0.47;1.06;399.18;163.23;-71.49;6.71;8.73;45.00
-0.06;-0.40;1.03;398.71;169.92;-97.41;16.72;13.09;42.37
0.06;-0.24;1.22;364.34;253.69;-39.93;25.81;19.50;41.29
-0.07;-0.09;1.24;467.60;239.08;-75.95;37.13;25.26;39.31
-0.27;-0.23;1.44;420.59;121.34;-63.28;47.78;28.27;37.54
-0.21;0.11;1.06;501.34;164.78;-4.25;60.19;32.26;37.43
-0.21;0.11;0.98;483.21;224.36;51.38;71.87;37.77;38.81
-0.14;0.23;0.92;479.09;237.94;50.78;83.35;43.45;40.18
-0.42;0.58;0.68;475.12;279.95;108.10;94.82;50.36;43.10
-0.08;0.41;0.76;309.24;260.39;94.51;105.56;59.63;46.88
-0.46;0.54;1.16;281.53;43.57;-1.49;111.27;59.90;46.84
-0.80;0.72;0.90;364.24;3.97;51.04;119.14;59.33;48.22
-0.31;0.70;0.60;353.24;64.78;131.96;126.51;60.06;51.65
-0.17;0.73;0.48;306.31;18.73;46.81;133.35;59.54;52.96
-0.45;0.94;0.29;309.75;94.81;40.31;139.91;61.25;54.05
-0.37;0.87;0.35;265.11;130.88;72.43;145.13;63.83;56.01
-0.25;0.76;0.36;244.76;101.66;61.75;149.72;65.49;57.67
-0.29;0.81;0.32;228.59;50.55;68.26;154.06;65.86;59.59
-0.37;0.83;0.28;220.97;112.00;52.48;158.51;68.21;61.16
-0.25;0.79;0.26;231.96;125.16;60.07;162.63;70.42;62.78
-0.07;0.83;0.02;204.56;48.91;70.86;166.45;70.41;64.70
-0.19;0.81;0.07;67.21;-43.77;10.30;166.35;68.08;64.97
-0.10;0.87;0.16;59.52;54.58;48.60;166.06;68.28;66.29
-0.29;0.95;-0.42;22.86;24.90;-42.38;165.88;68.78;64.04
-0.33;1.00;-0.14;-115.35;39.75;24.11;161.09;68.88;64.69
-0.13;0.93;0.23;-155.02;-7.45;17.76;155.14;67.44;65.17
-0.24;0.96;0.25;-171.50;-135.61;-39.70;148.77;62.72;64.10
-0.32;1.02;0.22;-190.69;-137.59;-9.74;141.24;57.58;63.80
-0.24;1.05;0.15;-203.73;-151.39;37.38;134.42;52.65;64.81
-0.27;1.01;-0.07;-259.53;-207.93;40.92;126.19;46.21;65.95
-0.33;0.77;0.16;-412.08;-243.12;59.36;113.92;39.24;67.55
-0.21;0.66;0.69;-448.86;-278.35;73.03;100.48;31.27;69.53
-0.05;0.64;0.70;-323.28;-229.74;42.98;90.41;24.38;70.73
-0.04;0.67;0.59;-332.98;-190.17;45.79;80.73;18.90;71.97
0.05;0.71;0.66;-363.87;-185.99;53.01;70.39;13.57;73.40
-0.07;0.76;0.49;-361.95;-158.37;56.55;60.48;9.17;74.92
-0.02;0.44;0.72;-494.71;-174.15;102.22;44.84;3.72;78.09
0.12;0.36;1.12;-499.20;-181.62;84.60;31.06;-1.26;80.38
0.15;0.27;1.30;-402.19;-182.23;57.29;19.62;-6.34;81.98
0.09;0.36;1.07;-246.30;-141.67;43.29;13.06;-10.04;83.15
0.11;0.37;0.69;-160.37;25.14;38.68;9.05;-9.29;84.19
0.44;0.26;0.69;-189.40;5.22;62.95;4.12;-9.46;85.89
0.21;0.03;0.74;-211.06;46.03;62.34;-1.52;-8.36;87.58
-0.25;0.01;1.45;-112.30;145.39;96.39;-4.45;-4.15;90.18
0.13;-0.08;1.27;-47.79;217.72;117.97;-5.74;1.79;93.48
0.30;-0.06;1.39;-73.26;140.29;5.09;-7.82;5.64;93.64
-0.01;0.07;1.39;-99.58;24.26;-72.80;-10.24;6.18;91.67
-0.39;0.11;1.41;-101.95;-2.19;-7.80;-12.76;6.29;91.45
-0.01;0.07;1.38;-49.03;48.23;65.39;-13.69;7.39;93.15
0.21;0.05;1.13;-3.79;89.80;26.08;-13.48;9.51;93.88
0.16;0.07;1.06;-44.04;67.46;-47.38;-14.32;10.94;92.60
-0.19;0.07;1.11;-98.28;-71.57;-79.20;-16.57;9.02;90.46
-0.21;-0.04;1.34;-95.98;-98.52;-40.50;-18.81;6.40;89.37
-0.16;-0.06;1.38;-29.49;-48.58;4.89;-19.28;5.07;89.51
-0.02;-0.08;1.19;15.29;8.62;35.17;-18.59;5.20;90.42
0.10;-0.12;1.23;6.18;-38.25;3.91;-18.14;3.89;90.54
-0.03;-0.09;1.17;-3.31;-63.13;-17.64;-17.95;2.11;90.05
0.06;-0.04;1.07;-20.16;-87.79;-10.32;-18.15;-0.24;89.78
0.19;-0.09;1.14;-20.44;-101.12;-27.00;-18.42;-3.18;89.02
-0.00;-0.03;1.26;-0.57;-170.83;-57.60;-18.10;-7.64;87.47
0.13;-0.05;1.12;-14.21;-208.75;-66.57;-18.16;-13.13;85.67
0.22;-0.06;1.24;-39.18;-179.41;-73.69;-18.92;-17.99;83.61
0.21;-0.04;1.25;0.33;-165.39;-66.33;-18.57;-22.19;81.81
0.38;-0.15;1.35;-20.34;-269.70;-83.17;-18.83;-29.17;79.57
0.34;-0.07;1.33;-6.31;-326.80;-126.03;-18.69;-38.79;75.66
0.24;-0.02;1.33;-6.53;-332.29;-102.80;-18.50;-46.68;72.99
0.38;-0.05;1.37;-15.23;-407.04;-73.00;-18.58;-57.22;70.94
0.53;-0.06;1.30;28.97;-418.48;-79.35;-17.45;-67.98;68.72
0.51;-0.03;1.08;77.93;-428.77;-48.10;-15.14;-78.04;67.47
0.63;0.01;0.86;86.88;-425.71;-23.55;-12.45;-88.88;66.81
0.59;0.05;0.67;74.27;-402.93;-13.78;-10.18;-98.54;66.44
0.61;0.01;0.65;37.41;-425.83;-11.08;-9.02;-108.27;66.15
0.65;0.03;0.61;37.73;-433.32;-11.09;-7.66;-120.17;65.81
0.66;0.01;0.49;67.09;-393.83;-13.00;-5.65;-129.63;65.44
0.79;-0.00;0.39;70.14;-450.87;-34.27;-3.76;-139.79;64.55
0.70;0.08;0.04;63.81;-390.80;13.18;-1.87;-148.94;64.91
0.84;0.01;0.06;73.18;-298.37;44.19;0.11;-155.57;66.10
0.84;0.01;0.04;72.24;-315.74;5.94;2.04;-162.55;66.26
0.71;0.07;0.01;54.89;-352.11;-12.06;3.62;-170.62;65.93
0.73;0.13;-0.33;59.11;-233.67;17.53;5.43;-175.26;66.38
0.80;0.14;-0.42;61.55;-151.65;29.52;8.84;-181.67;67.92
0.88;0.13;-0.57;37.35;-54.11;36.55;10.15;-181.85;68.94
1.05;0.06;-0.64;-9.67;202.12;37.50;9.73;-172.67;70.44
0.98;0.05;-0.42;-17.06;288.41;6.69;9.19;-163.80;70.62
1.09;0.02;-0.45;-48.15;380.27;-5.93;7.82;-153.07;70.47
1.17;-0.04;-0.52;-72.11;468.47;-5.48;5.61;-139.39;70.31
0.71;0.13;0.16;-66.62;499.28;14.54;3.91;-124.75;70.71
0.76;0.03;0.30;-40.33;499.28;53.07;2.79;-110.37;72.14
0.78;0.03;0.48;-30.63;499.28;54.52;1.96;-96.08;73.61
0.73;0.04;0.62;-7.47;499.28;38.16;1.75;-81.42;74.68
0.73;-0.01;0.56;-9.09;432.26;19.55;1.47;-69.82;75.19
0.63;-0.01;0.80;-24.30;425.36;39.64;0.69;-56.26;76.42
0.43;0.03;1.24;2.80;370.09;40.39;0.78;-45.35;77.55
0.63;-0.04;1.09;14.57;238.50;11.99;1.11;-38.95;77.86
0.62;-0.05;1.12;-1.47;49.37;0.66;1.01;-37.37;77.88
0.48;-0.09;1.36;-3.69;20.15;7.47;0.83;-36.45;78.08
0.59;-0.09;1.11;17.32;87.57;28.42;1.22;-33.93;78.85
0.57;-0.07;1.06;2.97;90.90;52.33;1.22;-31.38;80.26
0.55;-0.10;1.16;-18.05;47.07;51.18;0.67;-30.02;81.59
0.65;-0.09;1.09;14.24;7.25;-1.05;0.97;-29.81;81.56
0.42;-0.01;0.93;24.36;6.85;-2.56;1.59;-29.51;81.49
0.52;-0.04;0.74;6.50;109.31;30.49;1.70;-26.49;82.38
0.68;-0.16;0.93;-15.28;143.62;40.20;1.14;-22.65;83.50
0.57;-0.16;1.01;28.95;154.82;2.43;1.77;-18.62;83.57
0.37;-0.07;1.05;70.43;166.18;-5.61;3.54;-14.22;83.42
0.34;-0.02;1.00;110.79;217.52;19.06;6.39;-8.55;83.93
0.48;-0.05;1.17;144.86;200.78;1.07;10.20;-3.30;83.96
0.29;0.09;1.09;127.95;144.87;-24.42;13.33;0.18;83.33
0.29;0.08;1.07;124.68;105.25;-20.77;16.56;2.78;82.74
0.24;0.08;1.11;93.00;133.57;-16.85;18.76;6.03;82.29
0.25;0.12;1.39;118.24;139.16;2.86;21.95;9.81;82.38
0.15;0.19;1.27;207.70;103.48;-22.13;27.36;12.34;81.76
0.10;0.27;1.29;208.48;60.03;4.69;32.55;13.60;81.88
0.23;0.21;1.23;247.72;72.55;-6.77;38.61;15.07;81.70
0.18;0.24;1.33;275.82;111.31;-20.10;45.32;17.59;81.16
0.17;0.32;1.26;333.09;151.07;-52.61;53.49;21.11;79.74
0.06;0.36;1.22;369.32;166.90;-26.53;62.51;25.06;79.02
-0.09;0.50;1.03;367.76;145.48;40.85;71.47;28.48;80.12
0.16;0.41;0.96;330.21;127.23;5.61;78.85;31.02;80.27
0.10;0.55;0.81;349.08;91.33;-53.19;87.13;32.73;78.83
-0.05;0.64;0.66;368.60;165.45;-19.45;97.42;37.14;78.23
0.13;0.58;0.61;368.83;168.21;-27.61;105.63;40.56;77.51
-0.02;0.69;0.35;360.07;115.26;-63.93;114.28;42.82;75.79
-0.03;0.81;0.32;336.60;184.06;-22.13;122.56;47.04;75.17
-0.01;0.80;0.53;323.17;204.61;-34.85;129.46;51.33;74.26
-0.24;0.93;0.34;341.52;165.69;-11.51;137.07;54.90;73.95
-0.14;0.98;0.22;350.82;137.39;16.66;145.35;57.71;74.42
-0.08;0.90;-0.03;342.83;89.89;-12.86;152.91;58.96;74.08
-0.31;1.11;-0.18;279.47;119.17;-0.71;159.19;61.42;74.06
-0.10;0.98;-0.17;207.02;89.04;-11.38;164.18;63.04;73.71
-0.25;1.02;-0.22;82.97;59.85;-31.11;164.86;63.71;72.87
-0.31;1.05;0.02;7.78;47.85;17.97;163.22;64.07;73.37
-0.11;0.91;0.15;-6.11;5.65;12.42;161.28;63.06;73.69
-0.20;0.92;-0.00;-71.08;-27.42;-5.26;157.66;61.29;73.55
-0.17;0.94;0.17;-102.91;-10.17;34.85;153.19;59.97;74.49
-0.11;0.94;0.15;-96.19;-40.12;34.25;149.16;57.87;75.38
-0.05;0.97;-0.14;-165.86;-74.26;-7.95;143.54;54.74;75.16
-0.32;1.04;0.45;-348.47;-74.17;29.82;123.98;50.11;76.71
-0.03;0.87;0.71;-327.32;-232.38;42.92;112.22;41.84;78.08
0.13;0.89;0.48;-287.12;-225.36;27.99;103.21;34.72;78.86
0.12;0.84;0.34;-231.34;-148.83;-23.34;96.47;30.11;78.26
-0.18;0.84;0.54;-309.18;-199.59;-5.98;87.05;24.18;78.09
-0.17;0.80;0.81;-238.10;-234.51;47.10;79.80;17.61;79.36
-0.21;0.85;0.82;-177.76;-283.99;69.29;74.46;10.16;81.16
-0.15;0.81;0.49;-191.58;-276.35;134.25;68.75;2.50;84.92
0.09;0.72;0.57;-237.99;-277.59;151.88;62.27;-4.70;88.87
0.12;0.71;0.73;-256.56;-330.75;141.29;54.78;-13.77;92.83
0.18;0.63;0.58;-281.81;-336.17;145.15;45.92;-23.88;97.33
0.36;0.63;0.42;-309.58;-275.32;201.72;37.58;-31.07;102.77
0.49;0.44;0.81;-315.14;-216.69;209.90;28.86;-36.61;108.44
0.68;0.38;0.93;-288.59;-224.19;142.66;20.63;-42.57;112.44
0.48;0.41;0.86;-248.18;-187.54;87.75;14.00;-47.10;114.80
0.50;0.37;0.86;-191.31;-79.19;89.06;8.96;-48.69;117.21
0.66;0.27;1.02;-165.03;-124.78;59.07;4.60;-51.56;118.80
0.60;0.22;0.95;-108.45;-105.12;33.10;1.80;-53.86;119.70
0.70;0.21;0.80;-73.81;-25.62;33.82;-0.03;-54.15;120.61
0.62;0.17;0.94;-102.63;10.84;36.43;-4.03;-53.22;122.10
0.64;0.16;0.87;-63.26;5.92;30.60;-5.50;-52.63;122.93
0.63;0.20;0.81;-45.53;48.85;29.58;-6.44;-50.92;123.73
0.64;0.20;0.70;-38.24;109.07;45.24;-7.15;-47.73;124.95
0.65;0.17;0.65;-34.28;216.47;39.50;-7.73;-42.02;125.98
0.53;0.10;0.81;-92.01;205.81;37.38;-10.02;-36.14;127.02
0.44;0.09;1.11;-140.28;200.39;21.01;-13.46;-30.52;127.59
0.53;0.01;0.86;-103.44;347.89;12.31;-15.92;-21.33;127.92
0.43;-0.09;0.86;-95.72;499.28;-12.35;-18.31;-7.69;127.58
0.25;0.11;0.98;-84.27;388.90;-15.38;-20.41;4.02;127.10
0.14;-0.04;0.98;-76.51;399.81;-50.45;-21.99;13.97;125.79
0.10;-0.11;0.82;-78.04;484.27;-76.07;-23.74;26.39;123.74
-0.14;-0.00;0.93;-108.51;499.28;-54.54;-26.25;39.74;122.21
-0.31;0.18;1.02;-88.83;469.43;-58.97;-27.92;51.65;120.62
-0.32;0.13;0.51;-77.69;499.28;-6.86;-29.24;64.36;120.43
-0.57;-0.08;0.66;-171.02;499.28;-30.04;-33.43;77.53;119.59
-0.75;-0.17;1.00;-241.95;382.68;-21.14;-39.27;86.76;119.02
-0.92;-0.34;1.24;-211.55;463.52;19.14;-45.09;99.71;119.61
-0.75;-0.21;1.05;-17.63;497.02;30.05;-44.81;111.97;120.45
-0.83;-0.34;0.67;38.04;487.78;18.26;-43.20;122.94;120.93
-1.00;-0.31;0.31;58.91;392.68;-17.15;-41.04;132.04;120.47
0.11;-0.50;-0.47;-23.35;468.29;0.08;-43.37;140.75;120.47
-0.02;-0.41;-1.30;-96.66;286.99;29.53;-48.30;149.11;121.27
-1.05;-0.07;0.56;-95.35;250.39;15.73;-49.91;153.93;121.69
-1.37;-0.21;0.56;-13.70;315.39;42.26;-49.40;160.41;122.83
-1.43;-0.07;0.52;91.09;306.85;109.46;-45.95;166.97;125.90
-1.23;-0.15;0.23;132.25;292.73;111.61;-41.13;173.99;129.36
-1.24;-0.18;0.04;124.40;178.50;75.46;-37.18;176.83;131.39
-1.23;-0.15;-0.12;85.53;106.06;36.31;-34.24;177.97;132.41
-1.27;-0.06;0.09;26.51;39.13;6.20;-32.91;177.11;132.58
-1.05;-0.20;0.17;-31.05;50.81;-5.29;-33.25;176.33;132.43
-1.12;-0.16;0.25;-4.04;-15.70;-26.33;-32.84;173.77;131.70
-1.24;-0.18;0.24;27.26;-89.85;-33.55;-31.59;169.35;130.79
-1.28;-0.18;0.31;33.79;-177.93;-32.13;-30.20;162.63;129.92
-1.08;-0.25;0.23;58.48;-220.43;-64.04;-28.21;154.64;128.13
-1.43;-0.17;0.43;39.43;-375.54;-57.28;-26.55;141.48;126.36
-1.29;-0.20;0.52;68.79;-501.25;8.25;-24.32;126.61;126.58
-0.66;-0.27;0.45;142.39;-450.25;-59.84;-20.20;112.56;124.90
-1.27;-0.14;0.77;62.43;-501.25;-37.69;-16.64;85.36;122.90
-0.93;-0.20;0.73;85.38;-501.25;-34.06;-14.10;70.80;121.95
-0.75;-0.25;0.76;87.05;-501.25;-45.00;-11.78;57.34;120.78
-0.76;-0.18;0.78;58.62;-501.25;-32.15;-10.07;43.21;119.88
-0.85;-0.12;1.05;67.40;-501.25;33.06;-8.09;29.32;120.81
-0.71;-0.11;0.98;129.09;-464.74;138.25;-4.71;17.55;124.40
-0.06;-0.25;0.72;166.62;-327.38;209.23;0.09;7.32;130.89
0.33;-0.15;0.66;171.72;-157.45;98.26;4.46;2.57;133.54
-0.38;0.10;1.10;143.69;-336.90;12.10;8.25;-6.05;133.87
-0.46;0.13;0.87;187.23;-308.32;105.01;13.14;-13.59;136.70
-0.07;0.08;0.76;142.68;-199.57;181.41;16.90;-18.70;141.78
0.24;0.08;0.78;53.03;-246.02;123.87;18.06;-25.14;145.13
-0.02;0.18;0.95;-9.82;-272.92;67.09;17.65;-31.84;146.94
0.17;0.23;0.83;-46.62;-205.93;91.03;16.27;-37.03;149.49
0.60;0.15;0.93;-69.46;-123.22;101.84;14.01;-40.50;152.54
0.67;0.10;1.03;-62.71;-49.30;5.49;12.08;-41.65;152.70
0.40;0.10;1.12;-45.57;14.94;-19.23;10.71;-40.79;152.18
0.33;0.10;1.15;-23.61;54.39;-3.28;9.94;-38.83;152.09
0.31;0.06;1.13;-25.00;102.78;9.81;9.13;-35.62;152.35
0.21;-0.01;1.20;-17.35;147.57;4.42;8.48;-31.20;152.47
0.14;0.06;1.20;21.40;117.65;16.26;8.93;-27.59;152.91
0.14;0.08;1.12;23.02;87.81;21.23;9.44;-24.85;153.48
0.30;0.00;1.07;2.95;31.43;4.01;9.33;-23.84;153.59
0.14;0.06;1.18;16.79;-13.61;-21.90;9.64;-23.85;153.00
0.25;0.02;1.11;33.23;-8.29;-12.68;10.48;-23.88;152.61
0.25;0.06;1.08;28.97;3.08;-28.35;11.09;-23.57;151.84
0.14;0.09;1.12;41.66;36.52;-47.55;12.05;-22.26;150.56
0.03;0.18;1.09;27.89;8.41;-15.67;12.75;-21.61;150.12
0.20;0.14;1.03;15.03;-1.01;-13.55;13.01;-21.41;149.77
0.20;0.13;1.04;-2.37;12.81;-19.40;12.81;-20.82;149.22
0.17;0.12;1.08;-21.23;4.87;-12.86;12.10;-20.43;148.88
0.38;0.04;0.86;-42.82;43.30;-3.83;10.81;-19.38;148.78
0.43;0.02;1.02;-57.84;1.75;23.61;9.02;-19.39;149.44
0.36;-0.02;1.16;-68.77;-1.45;-17.55;6.13;-19.40;148.74
0.23;-0.02;1.33;-28.05;24.32;-41.99;5.25;-18.56;147.60
0.18;0.03;1.24;21.72;21.68;-46.35;5.75;-17.78;146.35
0.16;0.05;1.14;16.59;6.17;-35.74;6.14;-17.41;145.35
0.06;0.08;1.16;4.88;-6.35;-44.48;6.21;-17.28;144.19
-0.09;0.15;1.15;10.65;-8.08;-6.68;6.52;-17.08;144.01
0.08;0.08;1.07;-5.14;5.13;20.77;6.33;-16.67;144.57
0.07;0.10;1.13;-13.21;-13.56;-1.63;5.97;-16.75;144.52
-0.02;0.08;1.17;0.76;-2.77;19.14;5.94;-16.47;145.04
0.06;0.08;1.12;5.63;1.02;34.20;6.05;-16.17;145.97
0.19;0.05;1.06;-21.55;-28.70;20.55;5.34;-16.89;146.58
0.40;-0.01;1.09;-4.51;-54.05;-43.77;5.11;-18.38;145.40
-0.13;0.09;1.03;5.79;-7.73;-12.64;5.25;-18.08;145.06
0.28;0.04;1.06;25.46;12.99;-17.35;5.85;-17.66;144.59
0.13;0.05;1.07;9.44;39.40;-8.54;6.03;-16.40;144.36
0.15;0.05;1.17;-13.34;23.72;-2.64;5.60;-15.58;144.29
0.05;0.08;1.20;-6.13;12.88;-3.48;5.40;-14.97;144.19
0.11;0.09;1.15;1.63;-0.26;2.94;5.41;-14.78;144.28
0.16;0.06;1.11;-10.71;-1.06;-5.98;5.08;-14.67;144.12
0.10;0.07;1.11;-13.99;-1.50;-8.82;4.63;-14.52;143.85
0.12;0.06;1.15;-13.82;5.57;-3.17;4.21;-14.18;143.76
0.13;0.02;1.16;-4.56;25.78;2.45;4.03;-13.37;143.82
0.15;0.03;1.14;2.51;35.92;6.43;4.05;-12.26;144.00
0.11;0.04;1.18;13.20;63.16;9.36;4.35;-10.44;144.26
0.08;0.04;1.13;-0.15;42.62;-0.21;4.30;-8.14;144.24
0.06;0.05;1.22;4.10;17.49;-7.64;4.36;-7.59;144.05
0.09;0.06;1.14;19.08;35.80;-1.51;4.83;-6.57;144.01
0.06;0.08;1.09;2.79;26.93;4.04;4.89;-5.76;144.12
0.05;0.03;1.19;-20.79;18.65;4.34;4.28;-5.22;144.23
0.07;0.05;1.20;1.15;18.87;-2.61;4.28;-4.61;144.15
0.03;0.06;1.14;4.77;18.00;-2.42;4.38;-4.07;144.09
0.05;0.06;1.11;0.57;9.13;-1.34;4.36;-3.80;144.05
0.06;0.04;1.14;-5.12;12.87;1.58;4.18;-3.44;144.09
0.04;0.06;1.10;-15.20;26.61;4.57;3.74;-2.69;144.22
0.03;0.04;1.19;-13.20;23.91;2.97;3.37;-2.05;144.30
-0.01;0.04;1.20;3.75;21.98;4.66;3.44;-1.42;144.42
0.02;0.08;1.07;7.14;39.56;6.10;3.64;-0.37;144.59
0.07;0.08;0.91;-11.95;103.74;6.31;3.36;2.20;144.75
0.05;0.05;1.01;-50.92;147.74;-2.93;1.95;6.16;144.67
0.02;-0.05;1.02;-55.55;211.13;-32.06;0.17;12.43;143.68
-0.09;-0.06;0.93;-54.76;409.86;-41.61;-1.30;22.72;142.60
-0.25;0.12;1.24;-47.15;492.46;-39.67;-2.47;35.99;141.48
-0.49;0.06;0.69;-10.30;471.74;-27.19;-2.64;48.41;140.75
-0.51;0.06;0.66;-25.32;499.28;8.92;-3.19;61.36;140.99
-0.79;-0.08;0.80;-36.83;499.28;-19.81;-4.20;74.67;140.44
-1.13;-0.03;1.12;-1.49;499.28;23.82;-4.17;87.28;141.08
-1.03;-0.00;0.72;78.18;423.34;30.34;-2.02;97.83;141.90
-0.75;-0.06;0.46;115.15;425.43;-10.93;1.12;108.65;141.59
-1.06;0.01;0.62;97.53;499.28;-59.51;3.97;122.34;139.81
-1.15;-0.01;0.57;106.13;431.05;-12.25;6.80;132.99;139.46
-0.93;0.07;0.47;83.78;365.54;47.21;9.02;141.56;140.79
-0.86;0.09;0.33;77.82;290.38;29.87;10.91;147.40;141.56
-0.99;0.08;0.29;69.63;242.68;3.87;12.67;152.51;141.67
-1.15;0.14;0.19;61.06;171.42;11.91;14.21;155.64;142.01
-1.08;0.11;0.07;42.36;139.68;41.67;15.11;157.70;143.09
-1.03;0.10;-0.00;1.61;131.75;46.71;14.97;159.72;144.35
-1.08;0.06;0.06;-11.24;103.98;29.82;14.42;161.04;145.18
-1.00;0.09;0.08;72.59;113.11;21.44;16.37;162.75;145.83
-1.00;0.14;-0.05;107.64;118.49;9.32;19.16;164.45;146.09
-1.02;0.09;-0.14;94.13;134.01;11.70;21.39;166.56;146.40
-1.08;0.08;-0.04;53.73;66.79;9.97;22.47;166.75;146.67
-1.01;0.05;-0.00;41.93;11.59;13.49;23.23;165.48;147.05
-1.03;0.08;-0.16;30.42;2.32;10.14;23.65;164.11;147.32
-1.02;0.08;-0.12;13.64;16.70;10.36;23.65;163.13;147.61
-0.98;0.03;-0.03;-19.58;-18.81;-0.53;22.70;161.17;147.59
-1.00;0.08;0.02;-19.05;-81.61;-11.15;21.85;157.54;147.30
-0.98;0.08;-0.07;-6.56;-77.22;-4.76;21.32;153.83;147.15
-0.99;0.05;-0.04;-3.81;-53.33;2.52;20.85;151.08;147.22
-1.01;0.04;0.05;15.55;-85.59;8.98;20.88;147.50;147.47
-0.96;0.03;0.08;40.57;-116.74;8.23;21.57;143.12;147.69
-1.03;0.05;0.11;59.70;-165.64;8.98;22.83;137.33;147.94
-1.08;0.04;0.26;93.34;-160.35;48.91;24.79;131.99;149.21
-1.05;0.13;0.34;172.36;-207.64;50.51;28.96;125.16;150.58
-1.01;0.03;0.14;215.64;-219.56;38.60;34.32;118.24;151.66
-0.89;0.04;0.28;175.34;-157.83;34.88;38.32;113.10;152.60
-0.98;-0.01;0.33;247.89;-182.60;-34.83;47.26;105.09;151.20
-1.08;0.11;0.20;233.11;-85.44;-10.18;52.81;102.12;150.92
-1.09;0.08;0.35;167.44;-121.30;12.31;56.25;98.23;151.25
-0.90;0.05;0.50;208.88;-13.79;-3.66;60.69;97.08;151.15
-0.95;0.09;0.62;251.15;-48.06;-47.14;66.43;94.88;149.83
-0.99;0.15;0.46;344.76;-76.46;-44.68;74.34;92.13;148.63
-0.93;0.11;0.05;350.98;-7.86;-67.74;90.87;91.49;145.10
-0.87;0.15;-0.06;240.76;-61.74;-117.28;95.40;89.77;142.06
-1.07;0.20;0.03;194.02;-7.35;-136.85;98.83;89.33;138.36
-1.15;0.27;0.14;182.63;-19.47;-71.58;102.64;88.36;136.14
-1.07;0.24;0.10;181.40;-9.91;49.81;105.61;87.79;137.49
-0.87;0.01;0.23;125.90;-16.67;23.72;106.97;87.06;138.15
-0.94;0.00;0.29;91.98;-83.73;-51.46;107.18;84.64;136.81
-0.94;-0.04;0.21;119.58;-38.00;-77.35;108.27;83.40;134.65
-0.92;0.02;0.11;140.34;-1.38;-88.27;109.98;83.34;132.18
-1.03;0.05;0.08;126.42;15.34;-88.51;111.05;83.72;129.87
-1.19;0.00;0.05;84.01;39.16;-56.18;111.14;84.87;128.30
-1.12;0.05;0.05;36.24;75.31;-9.32;109.96;86.94;128.04
-0.93;-0.13;0.26;9.23;13.07;-15.17;107.90;86.93;127.58
-1.08;-0.00;0.20;31.90;62.26;-14.71;106.59;88.43;127.19
-1.01;-0.04;0.21;51.75;112.24;9.03;105.79;91.15;127.43
-1.03;0.04;0.27;37.78;108.85;2.10;104.71;93.68;127.49
-1.05;0.00;0.28;18.31;29.80;11.32;103.10;94.09;127.79
-0.96;-0.04;0.22;13.89;4.03;15.32;101.38;93.82;128.22
-0.98;-0.01;0.12;8.68;27.88;11.26;99.57;94.33;128.53
-0.98;0.04;0.02;2.59;57.01;6.19;97.69;95.68;128.69
-0.96;-0.00;0.17;-15.86;30.65;11.50;95.30;96.21;129.02
-0.99;0.03;0.17;-14.51;11.80;-0.88;93.06;96.16;128.99
-0.95;0.00;0.15;4.66;25.20;-3.58;91.34;96.62;128.88
-1.01;0.05;0.09;7.23;31.52;-12.27;89.76;97.19;128.54
-1.05;0.12;0.16;0.82;28.56;4.69;88.10;97.48;128.66
-1.06;0.11;0.20;-11.99;-11.70;27.65;86.12;96.69;129.41
-0.96;0.02;0.15;-7.09;-39.90;8.11;84.23;95.30;129.63
-1.01;0.04;0.08;14.04;-0.64;-0.82;82.96;95.04;129.60
-0.98;0.11;0.04;28.89;20.88;-3.32;82.21;95.35;129.51
-1.02;0.11;0.05;11.50;-2.96;0.10;80.98;94.99;129.51
-1.15;0.21;0.10;5.11;-3.99;29.65;79.69;94.48;130.34
-1.09;0.14;0.12;2.86;-22.03;80.91;78.31;93.45;132.85
-1.14;0.22;0.08;8.34;-36.40;106.26;77.17;92.15;135.61
-1.07;0.16;0.04;-11.15;-60.11;144.22;75.50;90.30;139.51
-1.18;0.23;0.02;-48.16;-81.93;165.41;72.88;87.80;144.14
-1.20;0.26;0.15;-62.92;-79.65;211.29;70.04;85.44;149.63
-1.13;0.32;0.12;-57.64;-71.97;258.04;67.39;83.20;156.60
-1.21;0.43;0.17;-69.34;-54.26;323.55;64.49;81.33;165.66
-1.16;0.40;0.22;-57.49;-41.61;382.46;61.99;79.84;175.99
-1.03;0.38;0.31;-32.94;-48.51;415.68;60.20;78.08;187.21
-0.81;0.40;0.18;-27.17;-64.90;400.39;58.62;75.63;199.62
-1.02;0.66;0.08;-38.51;-0.49;384.77;57.09;75.19;209.63
-0.96;0.62;0.27;-42.01;108.01;466.54;55.33;77.58;222.69
-0.54;0.50;0.58;-30.74;4.39;475.30;53.89;76.68;235.52
-0.57;0.66;0.24;25.99;-12.99;367.75;54.28;75.45;245.45
-0.79;0.86;0.26;-10.15;131.72;401.27;53.71;78.25;256.69
-0.39;0.56;0.60;12.34;36.75;463.65;53.55;78.03;269.21
-0.04;0.52;0.40;96.45;-67.18;399.21;56.03;74.74;279.98
-0.25;0.98;0.20;54.36;-37.10;319.85;57.70;72.46;288.94
0.23;0.60;0.26;78.54;-73.65;295.10;59.87;68.54;297.79
0.42;0.56;-0.07;84.88;-88.35;154.20;62.16;63.93;302.11
0.14;0.81;-0.15;-40.86;-14.20;41.82;61.65;62.04;303.24
0.23;0.78;0.31;-32.66;-30.41;33.24;60.66;59.76;304.14
0.14;0.89;0.20;-13.44;-20.29;-18.32;60.46;57.86;303.62
-0.01;0.98;0.27;-24.33;11.92;-0.03;60.08;57.03;303.62
0.08;0.94;0.36;16.04;-15.06;7.38;60.60;55.42;303.82
0.00;1.02;0.19;18.33;-13.80;0.39;61.46;53.95;303.83
0.04;0.99;0.29;5.92;25.81;25.17;61.96;54.13;305.12
0.05;0.97;0.19;28.62;16.81;21.33;63.03;53.45;305.71
0.02;0.98;0.14;3.02;12.79;20.20;63.47;52.73;306.30
0.08;0.91;0.18;-0.53;29.26;12.97;63.66;52.36;306.65
0.06;0.95;0.20;7.93;8.96;18.22;64.09;51.49;307.14
0.03;0.97;0.28;22.36;23.14;19.18;64.83;51.02;307.64
0.11;0.92;0.23;50.25;28.87;18.04;66.26;50.66;308.13
0.11;0.94;0.13;37.53;23.08;-0.41;67.44;50.15;308.12
0.10;0.92;0.09;24.13;27.19;-12.15;68.29;49.75;307.79
0.06;0.95;0.17;21.37;24.50;-19.64;69.01;49.34;307.26
0.05;0.94;0.16;37.85;29.25;-13.37;70.23;49.11;306.88
0.08;0.94;0.08;24.65;21.43;-20.88;71.39;48.87;306.05
0.03;0.98;0.10;-10.05;33.10;-26.96;71.34;48.74;305.32
0.04;0.95;0.11;-29.87;13.97;-16.93;70.75;48.09;304.86
0.03;0.98;0.15;-40.82;6.79;-13.74;69.85;47.27;304.49
-0.01;1.00;0.16;-44.04;12.18;-5.86;68.85;46.67;304.33
0.02;0.99;0.19;-42.79;15.95;-4.10;67.90;46.14;304.22
0.05;1.02;0.16;-60.31;21.17;-11.38;66.51;45.73;303.91
0.05;1.04;0.14;-101.24;16.09;-13.11;64.09;45.19;303.56
0.06;1.05;0.17;-139.86;7.46;-10.15;60.67;44.43;303.28
0.10;1.02;0.21;-168.45;-19.64;-22.91;56.47;42.93;302.66
0.03;1.06;0.31;-274.40;-41.10;-40.48;48.45;40.80;301.41
0.12;0.96;0.37;-282.01;-6.48;-61.14;41.00;39.70;299.70
0.08;0.92;0.41;-285.81;7.74;-78.86;34.13;39.04;297.65
-0.19;1.01;0.44;-361.08;-38.58;-82.03;24.70;37.35;295.35
-0.06;0.74;0.64;-323.11;30.78;-31.41;16.28;37.49;294.47
0.00;0.72;0.70;-340.73;-59.24;-65.95;8.19;35.23;292.76
-0.19;0.74;0.74;-442.98;-79.07;-62.39;-2.93;32.58;291.07
-0.08;0.60;0.88;-416.45;-46.80;-0.82;-13.25;30.75;291.05
0.09;0.53;0.82;-350.97;-89.41;2.60;-21.67;27.70;291.12
0.06;0.44;0.94;-401.52;-107.82;-19.92;-32.96;23.82;290.50
0.06;0.38;0.87;-426.40;-76.19;-39.03;-42.72;21.35;289.49
0.06;0.28;0.84;-422.69;23.33;-50.77;-53.11;21.51;288.07
-0.03;0.21;0.88;-417.40;19.89;-50.93;-63.24;21.65;286.64
-0.11;0.11;1.09;-448.02;-32.26;-28.74;-73.73;20.47;285.86
-0.05;-0.06;1.12;-427.18;8.79;-30.70;-83.62;20.34;285.04
-0.10;-0.08;1.13;-348.57;18.38;-27.67;-91.58;20.53;284.26
-0.01;-0.23;1.24;-294.73;-5.36;-8.65;-97.76;19.99;284.03
-0.03;-0.23;1.40;-268.65;-78.00;-37.11;-103.36;17.47;282.99
-0.05;-0.22;1.04;-186.15;-101.56;-38.93;-107.18;14.08;281.78
-0.08;-0.26;1.09;-130.28;-18.72;-5.20;-108.73;13.37;281.64
0.04;-0.39;1.37;-83.29;-5.25;9.09;-109.15;12.93;281.89
0.03;-0.35;1.14;-13.72;-14.54;6.81;-107.66;12.26;282.08
0.04;-0.32;1.06;18.19;20.26;-1.64;-105.35;12.51;282.03
0.07;-0.31;1.17;38.37;28.43;1.30;-102.47;12.99;282.07
0.02;-0.29;1.05;57.52;28.30;3.49;-99.21;13.46;282.17
0.04;-0.28;1.02;52.42;56.14;8.48;-96.13;14.63;282.39
0.03;-0.25;1.14;37.53;48.17;6.68;-93.46;15.60;282.57
0.02;-0.26;1.13;39.35;9.86;8.86;-90.65;15.57;282.85
-0.00;-0.26;1.11;25.69;10.88;8.71;-88.45;15.53;283.08
0.00;-0.22;1.10;8.60;3.01;6.63;-86.67;15.30;283.26
0.02;-0.24;1.23;1.87;-55.70;12.49;-85.11;13.56;283.59
0.05;-0.28;1.14;27.78;-78.29;10.66;-82.91;11.10;283.88
0.03;-0.27;1.07;19.60;-25.83;11.46;-80.99;10.14;284.21
0.01;-0.23;1.18;23.50;-34.31;24.36;-79.00;9.06;284.84
-0.01;-0.22;1.15;28.59;-51.21;29.88;-76.85;7.49;285.68
0.06;-0.22;1.09;20.43;-40.20;25.65;-74.97;6.18;286.39
0.10;-0.21;1.07;-31.60;-26.77;1.14;-75.88;4.10;286.47
0.03;-0.20;1.07;-13.81;-32.63;-0.48;-74.92;3.13;286.46
0.10;-0.26;1.20;12.22;7.14;0.42;-73.32;3.19;286.47
0.09;-0.28;1.24;48.36;18.14;-14.96;-70.86;3.51;286.08
0.05;-0.25;1.15;52.88;18.06;-23.06;-68.28;3.88;285.46
0.04;-0.25;1.21;49.61;-11.93;-8.36;-65.78;3.45;285.23
0.01;-0.15;1.29;56.62;-48.95;6.71;-63.15;2.12;285.40
0.09;-0.21;1.12;75.35;-71.06;20.16;-60.09;0.12;285.95
0.09;-0.17;1.03;76.48;-21.85;16.85;-57.04;-0.54;286.40
0.15;-0.16;0.92;42.04;67.83;12.57;-54.79;1.37;286.79
0.08;-0.11;1.09;2.07;77.49;9.00;-53.75;3.32;287.03
0.12;-0.14;1.04;7.66;80.67;-8.35;-52.60;5.27;286.81
0.10;-0.15;1.00;-4.80;145.02;-30.41;-51.83;8.90;285.99
0.07;-0.14;0.97;15.67;208.03;-47.87;-50.52;14.35;284.65
-0.00;-0.16;1.02;37.55;276.43;-81.40;-48.69;21.38;282.45
-0.07;-0.15;0.91;78.30;292.87;-103.98;-45.82;28.78;279.64
-0.26;-0.09;0.99;77.11;328.36;-112.74;-42.87;37.49;276.48
-0.25;-0.19;0.94;13.85;342.36;-94.88;-41.83;46.04;273.92
-0.49;-0.16;0.74;-97.02;434.01;-102.47;-44.09;58.88;270.75
0.22;0.09;1.16;-145.76;356.14;-75.22;-47.13;67.27;268.64
-0.23;-0.27;0.90;-46.13;229.77;-133.75;-47.63;72.00;265.16
-0.61;-0.14;0.69;-39.63;285.34;-130.47;-47.85;78.84;261.64
-0.70;-0.25;0.62;-75.38;351.62;-70.74;-49.17;87.68;259.66
-0.72;-0.23;0.78;-50.91;386.70;-58.73;-49.71;96.87;258.07
-0.90;-0.11;0.83;-6.15;391.11;-41.14;-48.96;106.55;256.92
-0.97;-0.11;0.75;57.78;417.66;21.72;-46.58;116.02;257.49
-0.82;-0.24;0.64;100.53;483.83;30.33;-43.08;127.84;258.34
-0.93;-0.29;0.52;51.44;420.07;-8.32;-40.38;143.14;257.99
-1.06;-0.21;0.46;31.72;357.89;-14.12;-38.89;150.90;257.61
-1.19;-0.23;0.42;61.66;331.23;-19.41;-36.64;157.87;257.09
-1.19;-0.22;0.27;117.66;367.10;-6.30;-32.85;166.14;256.91
-1.14;-0.22;0.13;121.64;337.66;11.76;-29.06;173.54;257.24
-1.13;-0.28;0.04;103.32;256.94;5.29;-26.11;178.10;257.38
-1.24;-0.26;-0.06;55.29;214.55;1.39;-24.37;181.83;257.42
-1.19;-0.26;-0.00;31.75;145.78;31.65;-23.25;183.76;258.30
-1.16;-0.23;-0.10;27.00;129.83;46.88;-22.32;185.19;259.57
-1.10;-0.21;-0.02;4.60;77.23;50.74;-21.96;185.44;261.14
-1.02;-0.19;-0.02;-3.95;54.73;52.59;-21.85;184.84;262.61
-1.01;-0.17;-0.04;32.25;50.81;30.39;-20.78;184.09;263.40
-1.04;-0.17;-0.15;47.40;77.23;44.55;-19.32;184.23;264.61
-0.98;-0.16;-0.11;30.54;67.89;49.07;-18.31;184.15;265.98
-0.86;-0.15;-0.02;41.11;69.75;29.18;-17.06;183.93;266.77
-0.96;-0.16;-0.23;43.47;28.29;31.47;-15.82;182.89;267.62
-0.92;-0.10;-0.04;45.61;-7.77;38.51;-14.43;180.75;268.66
-0.97;-0.16;-0.12;70.50;3.34;36.74;-12.42;178.98;269.69
-1.05;-0.13;0.01;68.66;-40.26;71.36;-10.23;175.83;271.90
-0.94;-0.31;-0.01;86.43;-132.34;68.13;-8.11;170.26;273.74
-1.05;-0.17;-0.04;113.37;-91.45;51.70;-5.14;166.09;275.14
-1.09;-0.07;0.17;120.88;-117.41;89.46;-1.91;161.22;277.55
-1.03;-0.12;0.28;139.11;-287.24;128.20;1.71;151.77;281.01
-0.93;-0.38;0.01;184.71;-327.04;89.14;6.30;141.10;283.51
-0.89;-0.26;0.19;263.00;-142.80;50.07;12.86;135.77;284.86
-0.97;-0.21;0.30;339.79;-173.24;24.63;21.07;129.89;285.50
-1.00;-0.24;0.28;350.43;-290.44;14.46;31.08;119.72;285.95
-1.12;-0.16;0.07;367.93;-166.86;9.88;40.04;114.47;286.22
-1.05;-0.09;0.35;399.53;-44.93;82.19;49.74;112.35;288.43
-0.77;-0.26;0.34;392.02;-134.80;41.15;59.24;107.44;289.59
-1.20;0.01;0.25;401.50;-24.41;-19.32;77.35;105.67;288.64
-0.94;0.09;-0.04;332.66;-20.69;-20.07;85.69;104.69;288.04
-0.84;0.11;0.07;248.54;54.29;-16.93;90.44;105.54;287.60
-0.64;-0.04;0.36;188.80;-41.71;-127.43;93.59;103.48;284.16
-0.28;-0.24;0.27;72.39;-235.10;-350.96;93.22;95.54;274.33
-1.38;0.22;0.01;28.01;-12.87;-414.65;92.36;94.86;261.89
-2.00;0.54;-0.00;13.89;160.03;-115.89;91.20;98.85;258.65
-1.90;0.09;0.23;-47.21;135.16;243.30;88.13;102.20;265.46
-1.04;-0.22;0.36;-51.86;165.91;353.00;84.86;105.60;274.64
-0.48;-0.62;0.73;0.05;47.65;170.62;82.63;105.19;279.41
-0.76;-0.12;0.35;5.82;-18.89;-0.22;81.01;103.73;279.41
-1.09;0.10;0.31;39.69;14.67;-4.22;80.48;103.42;279.30
-1.10;0.07;0.15;48.14;6.81;5.46;80.21;103.11;279.44
-1.16;0.12;0.15;45.21;53.52;43.65;79.95;104.06;280.67
-0.93;0.01;0.26;22.05;3.72;42.69;79.01;103.56;281.95
-1.01;0.06;0.22;-16.89;-6.57;19.72;77.04;102.80;282.48
-0.96;0.09;0.22;-17.92;13.52;26.37;75.10;102.56;283.22
-0.89;0.07;0.19;-1.46;-21.22;14.89;73.63;101.42;283.62
-0.91;0.05;0.14;-17.50;-23.21;0.60;71.75;100.34;283.64
-0.88;-0.01;0.23;-33.37;-16.17;-38.83;69.42;99.41;282.59
-0.95;0.07;0.22;-35.35;-22.66;-68.12;67.16;98.28;280.75
-0.99;0.07;0.27;-30.79;-26.81;-60.16;65.04;97.01;279.06
-1.05;0.04;0.25;-16.71;-13.41;-37.34;63.35;96.21;278.09
-1.10;0.09;0.32;-10.37;0.72;7.21;61.84;95.70;278.32
-1.02;0.09;0.31;2.48;-5.96;28.22;60.75;95.00;279.08
-0.95;0.05;0.28;8.83;-14.99;28.36;59.81;94.13;279.84
-0.92;0.02;0.25;21.12;1.37;15.61;59.19;93.76;280.27
-0.99;0.07;0.22;16.94;17.05;7.72;58.53;93.83;280.48
-0.94;0.02;0.20;6.22;13.48;-15.77;57.54;93.83;280.07
-0.97;0.06;0.28;6.07;17.60;-19.93;56.61;93.85;279.51
-1.02;0.07;0.28;6.59;-6.66;-18.62;55.71;93.22;279.01
-1.04;0.11;0.27;13.66;-13.91;6.43;55.04;92.40;279.18
-0.98;0.04;0.26;8.56;-38.15;10.26;54.21;90.96;279.47
-0.91;0.02;0.20;15.67;-1.77;4.08;53.62;90.61;279.59
-0.97;0.05;0.20;15.11;16.68;-14.41;52.99;90.74;279.22
-1.00;0.06;0.26;-8.44;-1.82;-16.79;51.76;90.32;278.76
-1.04;0.08;0.35;-8.16;-19.38;-7.05;50.57;89.33;278.57
-1.02;0.05;0.36;8.04;-32.90;3.20;49.80;88.07;278.65
-0.99;0.03;0.25;15.09;-25.21;8.94;49.25;87.10;278.90
-0.95;0.03;0.20;8.94;0.36;-5.40;48.52;86.90;278.76
-0.97;0.04;0.28;-1.38;7.85;-15.86;47.55;86.81;278.33
-1.00;0.05;0.30;0.77;6.88;-16.77;46.66;86.67;277.86
-0.96;0.04;0.29;21.89;30.91;-3.31;46.63;87.57;277.73
-0.98;0.03;0.26;15.20;13.52;-7.51;46.13;87.64;277.53
-1.01;0.06;0.23;11.84;17.97;-6.76;45.57;87.84;277.35
-0.97;0.02;0.26;15.95;32.62;-1.86;45.11;88.46;277.29
-1.01;0.04;0.24;13.98;22.50;-11.87;44.61;88.78;276.97
-1.00;0.04;0.29;19.34;14.26;-3.35;44.27;88.81;276.88
-1.03;0.05;0.24;24.31;5.14;-4.47;44.10;88.66;276.76
-1.01;0.06;0.21;16.95;2.04;-1.83;43.71;88.44;276.71
-1.02;0.05;0.21;15.50;8.55;6.51;43.29;88.41;276.89
-1.01;0.04;0.20;9.70;6.18;3.96;42.72;88.33;276.99
-1.00;0.02;0.24;1.81;-2.06;9.65;41.94;88.01;277.29
-1.00;0.02;0.26;3.92;-11.24;3.39;41.22;87.44;277.38
-1.01;0.04;0.21;9.99;3.30;5.39;40.70;87.30;277.53
-1.00;0.06;0.22;4.47;-8.19;10.74;40.06;86.83;277.82
-1.03;0.07;0.26;-0.79;-16.92;18.26;39.30;86.07;278.33
-0.96;0.05;0.21;13.89;-2.90;46.17;39.25;85.70;280.64
-0.92;0.03;0.18;-11.47;-12.80;15.62;38.17;85.17;281.09
-0.94;0.03;0.26;-19.08;-11.67;-0.57;36.95;84.62;281.08
-0.95;0.05;0.28;-3.93;-4.28;-16.44;36.15;84.24;280.63
-0.93;0.02;0.31;3.98;-30.46;-35.99;35.56;83.04;279.52
-1.06;0.09;0.24;-0.88;-36.86;-40.30;34.91;81.85;278.43
-1.09;0.16;0.27;-2.30;-19.03;-1.80;34.28;81.06;278.38
-0.90;0.01;0.32;-14.85;-43.24;14.63;33.23;79.74;278.76
-0.98;0.03;0.45;-34.89;-100.77;-4.68;31.63;76.65;278.63
-1.02;0.06;0.62;-32.08;-191.54;-0.04;30.16;70.99;278.63
-0.97;0.02;0.70;-31.69;-352.40;-2.73;28.76;61.66;278.56
-1.11;0.06;0.51;-76.95;-441.50;3.75;26.12;49.57;278.66
-0.90;0.01;0.63;-43.08;-366.83;19.00;24.42;39.60;279.19
-0.87;0.04;0.73;-38.16;-337.12;-6.64;22.84;29.87;278.99
-0.87;0.07;0.84;-31.03;-368.66;-0.88;21.58;20.03;278.97
-0.82;0.08;0.86;-16.19;-420.93;40.65;20.77;9.32;280.07
-0.67;0.05;0.81;-1.31;-354.28;47.44;20.37;0.86;281.30
-0.56;0.04;0.78;-35.90;-311.90;37.76;19.00;-7.02;282.36
-0.48;-0.04;0.90;-137.29;-362.89;-13.14;14.96;-15.95;282.00
-0.54;0.00;1.04;-211.89;-501.25;-41.28;9.26;-27.86;280.93
-0.40;-0.01;0.85;-176.31;-401.91;-42.30;4.23;-37.83;279.75
-0.32;-0.04;1.03;-54.25;-145.54;-8.04;2.62;-40.73;279.52
-0.35;-0.17;1.24;-39.35;-189.10;-8.45;1.29;-45.20;279.27
-0.18;-0.23;1.32;-50.45;-266.58;-32.39;-0.29;-51.47;278.36
-0.13;-0.21;1.17;34.45;-195.82;-66.44;0.47;-55.71;276.50
-0.27;-0.10;1.05;121.34;-46.19;-43.51;3.59;-55.56;275.32
-0.23;-0.09;1.04;67.70;-63.25;-26.76;5.23;-55.89;274.60
-0.22;-0.03;1.16;-1.49;-131.01;-5.28;5.06;-57.90;274.46
-0.09;-0.01;1.12;39.02;-73.67;-8.86;6.02;-58.67;274.22
-0.06;-0.03;1.06;41.60;-26.81;-9.14;7.01;-58.17;273.96
-0.11;-0.05;1.13;-8.30;-42.99;3.46;6.61;-57.99;274.05
-0.02;-0.12;1.18;-55.98;-108.80;-4.67;4.61;-60.23;273.90
-0.06;-0.03;1.19;-0.25;-33.93;-9.23;4.48;-59.86;273.65
-0.01;-0.02;1.05;39.89;36.15;9.84;5.39;-57.73;273.91
-0.00;-0.12;1.15;7.09;-7.70;11.41;5.36;-56.78;274.23
0.04;-0.10;1.18;-44.25;-87.25;-9.31;3.95;-58.07;273.97
-0.01;-0.03;1.18;-1.35;-39.90;-11.40;3.80;-57.92;273.67
-0.03;0.00;1.03;43.56;28.88;15.30;4.88;-55.97;274.08
0.03;-0.10;1.09;-1.78;-1.21;11.12;4.63;-54.91;274.39
0.03;-0.11;1.22;-47.08;-99.32;1.75;3.20;-56.47;274.44
0.12;-0.08;1.19;-6.63;-65.90;3.41;2.89;-57.19;274.53
0.06;-0.05;1.14;18.48;-46.31;-6.41;3.34;-57.52;274.34
0.08;-0.05;1.16;-5.47;-93.97;-1.09;3.09;-58.84;274.31
0.12;-0.06;1.18;-13.89;-129.48;9.29;2.59;-61.33;274.57
0.20;-0.09;1.18;-15.18;-133.59;13.27;2.07;-63.82;274.93
0.21;-0.10;1.23;-16.42;-169.07;6.54;1.53;-67.03;275.10
0.24;-0.11;1.25;-28.56;-228.25;-0.76;0.64;-72.15;275.07
0.22;-0.03;1.25;10.45;-232.87;-3.95;0.88;-77.07;274.97
0.22;-0.01;1.23;58.88;-280.58;31.35;2.41;-83.15;275.81
0.33;-0.03;0.99;61.72;-311.10;56.40;4.03;-90.38;277.39
0.37;-0.02;0.88;19.53;-354.46;44.14;4.51;-99.44;278.72
0.48;-0.08;0.68;-17.12;-378.22;89.27;3.88;-108.48;281.22
0.75;-0.19;0.73;-89.64;-367.04;72.02;1.20;-117.17;283.23
0.74;-0.25;0.88;-135.73;-444.37;8.08;-2.46;-126.81;283.44
0.76;-0.12;0.82;-82.36;-434.41;-15.23;-4.68;-136.54;283.03
0.76;-0.14;0.64;-7.64;-385.64;-10.54;-4.91;-145.28;282.74
0.71;-0.09;0.63;-5.31;-354.11;34.68;-5.03;-152.64;283.67
0.76;-0.13;0.51;-2.04;-338.43;81.79;-5.10;-159.88;285.96
0.99;-0.31;0.41;-11.43;-382.52;43.23;-5.82;-176.88;288.17
0.85;-0.18;0.08;47.99;-283.41;42.72;-4.00;-186.19;289.92
1.02;-0.24;-0.02;1.89;-202.15;101.53;-4.14;-189.57;292.76
1.15;-0.25;0.04;-19.76;-195.36;62.04;-4.81;-192.46;294.44
1.08;-0.31;-0.02;-6.71;-147.25;6.91;-5.22;-194.01;294.62
0.97;-0.22;-0.01;-1.03;-48.70;-7.49;-5.40;-192.97;294.42
1.04;-0.27;0.00;-3.17;-12.60;-10.24;-5.66;-190.96;294.15
1.02;-0.28;0.08;-16.74;-36.95;-38.27;-6.29;-189.57;293.07
0.93;-0.21;0.13;-25.31;-51.71;-38.36;-7.08;-188.60;292.00
0.93;-0.20;0.08;7.72;-29.79;-11.49;-6.94;-187.16;291.66
1.03;-0.27;0.00;9.17;-10.84;-14.28;-6.84;-185.22;291.26
1.00;-0.22;0.01;-32.80;-25.70;-26.44;-7.83;-183.74;290.54
0.95;-0.21;0.07;-56.33;-23.50;-32.67;-9.33;-182.13;289.69
0.93;-0.18;0.08;-27.99;-38.28;-29.90;-10.12;-181.02;288.85
0.91;-0.18;0.01;-14.34;-11.50;-11.72;-10.54;-179.27;288.53
0.93;-0.18;0.04;-12.24;-1.80;12.19;-10.86;-177.27;288.86
1.02;-0.21;-0.03;11.52;-11.64;-10.82;-10.57;-175.64;288.55
0.97;-0.20;-0.06;6.24;9.54;-6.80;-10.44;-173.50;288.36
0.92;-0.16;-0.02;-1.29;5.01;-7.26;-10.47;-171.51;288.14
0.91;-0.18;0.03;1.05;-1.10;-0.44;-10.45;-169.65;288.13
0.98;-0.21;0.00;9.20;4.12;-2.83;-10.23;-167.71;288.06
0.98;-0.19;-0.03;14.05;16.65;-0.27;-9.88;-165.54;288.05
0.96;-0.20;-0.01;4.83;-6.38;-4.93;-9.78;-163.99;287.91
0.96;-0.21;0.03;4.65;-2.54;-1.93;-9.70;-162.30;287.86
0.96;-0.18;0.03;3.72;-21.12;2.62;-9.61;-161.16;287.93
1.00;-0.19;-0.03;11.63;-25.21;3.84;-9.32;-160.25;288.04
1.01;-0.21;-0.03;13.00;-24.06;-1.08;-9.03;-159.29;288.01
0.92;-0.17;-0.01;13.95;-19.86;9.85;-8.63;-158.31;288.31
0.97;-0.18;-0.10;21.23;2.50;27.38;-8.12;-156.78;289.08
0.90;-0.16;-0.08;9.41;23.17;43.43;-7.94;-154.75;290.21
0.89;-0.17;-0.02;6.91;18.07;70.74;-7.82;-152.79;292.12
1.01;-0.28;0.01;12.16;-5.15;76.36;-7.64;-151.35;294.26
1.01;-0.33;0.02;27.37;16.61;73.33;-7.12;-149.30;296.24
1.04;-0.31;-0.02;62.39;79.85;61.33;-5.67;-145.69;297.89
0.91;-0.31;0.10;50.01;93.97;60.59;-4.58;-141.60;299.53
0.83;-0.25;0.14;28.85;51.02;80.11;-4.02;-138.71;301.69
0.85;-0.25;0.14;44.08;51.74;114.94;-2.88;-135.66;305.25
0.99;-0.34;0.11;65.12;-2.49;100.65;-1.38;-134.34;308.07
0.92;-0.39;0.09;64.47;-1.13;125.09;-0.07;-132.93;311.45
0.86;-0.35;0.02;53.78;31.92;134.28;0.92;-130.75;315.08
0.73;-0.39;0.10;77.27;98.93;194.39;2.45;-126.64;320.32
0.85;-0.46;0.11;60.10;83.31;244.68;3.48;-123.03;326.93
1.13;-0.65;0.06;36.51;40.10;195.61;3.84;-120.63;332.41
0.93;-0.61;0.13;25.64;53.07;162.69;3.82;-117.89;336.64
0.79;-0.62;0.08;-16.18;25.48;126.72;2.59;-115.80;340.19
0.69;-0.59;0.22;-53.17;36.33;162.20;0.26;-113.19;345.21
0.77;-0.60;0.21;-26.71;46.04;173.64;-1.08;-110.58;349.90
0.70;-0.69;0.29;-25.47;54.23;204.08;-2.46;-107.59;355.62
0.68;-0.73;0.25;-17.26;18.21;206.40;-3.64;-105.64;361.40
0.60;-0.69;0.21;21.89;38.27;215.30;-3.82;-103.22;366.99
0.58;-0.77;0.15;32.97;49.57;246.86;-3.76;-100.44;373.91
0.57;-0.91;0.19;1.31;46.46;254.59;-4.66;-97.70;381.03
0.57;-0.91;0.23;-13.95;32.78;228.85;-5.89;-95.44;386.98
0.61;-1.05;0.32;-35.82;9.75;176.92;-7.69;-93.75;391.76
0.48;-1.03;0.32;-31.49;-46.90;120.63;-9.54;-93.70;395.50
0.34;-0.90;0.08;-4.82;-55.25;101.33;-10.77;-93.62;398.13
0.34;-0.97;0.17;-0.04;-23.64;119.07;-11.80;-93.21;403.97
0.40;-1.02;0.11;-59.79;42.79;127.04;-14.54;-90.52;407.65
0.41;-1.04;0.33;-49.72;-15.67;87.23;-16.70;-89.47;410.10
0.30;-1.01;0.24;1.31;0.32;51.97;-17.57;-87.94;411.45
0.23;-0.92;0.23;27.56;-11.85;37.75;-17.75;-86.72;412.47
0.21;-0.90;0.16;19.05;-49.24;31.56;-18.22;-86.57;413.35
0.18;-0.83;0.19;-10.53;-32.19;54.46;-19.46;-85.88;414.82
0.24;-0.93;0.23;27.46;26.21;51.21;-19.50;-83.61;416.41
0.24;-0.99;0.13;56.02;19.11;55.65;-18.97;-81.65;417.97
0.28;-1.04;0.18;32.30;-18.09;47.76;-19.09;-80.73;419.21
0.24;-1.04;0.21;17.85;4.04;30.51;-19.55;-79.23;420.06
0.26;-1.07;0.13;22.48;-31.86;31.88;-19.94;-78.76;420.96
0.23;-1.03;0.12;0.80;2.96;27.88;-20.94;-77.34;421.68
0.26;-1.00;0.16;-17.72;4.78;7.87;-22.34;-75.91;421.89
0.27;-1.02;0.21;-22.57;1.59;0.55;-23.81;-74.60;421.91
0.24;-1.07;0.20;-16.80;18.30;-16.32;-25.11;-72.86;421.48
0.18;-1.02;0.24;-0.36;-4.66;2.11;-25.98;-71.75;421.57
0.22;-0.99;0.24;-8.19;9.31;4.83;-26.99;-70.26;421.70
0.24;-1.00;0.17;-13.93;18.07;3.70;-28.18;-68.60;421.80
0.22;-1.00;0.22;-7.43;-4.08;9.70;-29.14;-67.54;422.07
0.25;-1.06;0.19;-2.45;17.26;-5.38;-29.98;-65.94;421.92
0.17;-1.01;0.18;-2.76;8.61;7.59;-30.87;-64.55;422.12
0.17;-1.00;0.26;-30.56;-7.25;15.65;-32.40;-63.61;422.54
0.20;-1.05;0.17;-27.41;-2.06;22.33;-33.89;-62.58;423.15
0.21;-1.04;0.17;-26.59;-6.96;12.81;-35.31;-61.70;423.49
0.20;-1.00;0.22;-37.41;-13.33;11.18;-36.98;-61.02;423.80
0.19;-1.03;0.20;-24.40;-40.08;7.43;-38.36;-61.20;424.03
0.15;-0.99;0.10;-9.47;-5.51;0.16;-39.36;-60.28;424.04
0.21;-0.98;0.16;-7.67;6.35;3.53;-40.17;-59.10;424.14
0.21;-0.99;0.14;-28.28;0.75;-0.45;-41.52;-58.12;424.13
0.21;-1.02;0.11;-26.37;-9.51;-2.13;-42.84;-57.41;424.07
0.19;-1.00;0.11;-19.26;-4.28;-3.05;-43.98;-56.57;423.98
0.24;-1.03;0.19;-39.55;3.33;-13.78;-45.52;-55.58;423.60
0.17;-0.98;0.22;-14.74;-6.84;-19.58;-46.35;-54.81;423.09
0.16;-0.97;0.15;8.53;2.52;-8.44;-46.64;-53.80;422.86
0.22;-1.01;0.15;6.66;11.69;0.68;-46.91;-52.59;422.88
0.22;-1.03;0.15;8.53;5.66;-4.15;-47.16;-51.60;422.77
0.20;-0.99;0.10;-2.59;6.46;-7.41;-47.75;-50.60;422.57
0.24;-1.00;0.12;-0.56;17.43;-6.22;-48.21;-49.38;422.40
0.18;-1.00;0.15;22.27;13.77;3.73;-48.09;-48.21;422.50
0.20;-1.02;0.08;3.84;16.32;7.87;-48.52;-47.00;422.72
0.24;-1.02;0.07;-20.02;-10.20;7.75;-49.55;-46.58;422.93
0.22;-1.02;0.16;-24.57;-10.83;-12.71;-50.60;-46.14;422.59
0.17;-1.00;0.13;-38.82;-3.30;0.80;-52.08;-45.47;422.61
0.17;-0.98;0.18;-17.46;12.94;-3.63;-53.03;-44.30;422.49
0.24;-1.00;0.14;-3.78;6.24;4.28;-53.46;-43.48;422.60
0.24;-1.00;0.17;-12.54;-8.19;-3.00;-54.08;-43.06;422.52
0.20;-0.99;0.18;-2.95;6.97;-4.80;-54.45;-42.22;422.40
0.21;-0.99;0.17;39.43;29.91;-8.86;-53.70;-40.78;422.16
0.22;-0.99;0.12;60.65;37.68;-4.09;-52.38;-39.16;422.04
0.20;-1.00;0.16;63.76;32.75;-5.14;-51.12;-37.74;421.91
0.18;-0.95;0.13;82.85;35.62;6.43;-49.26;-36.19;422.09
0.23;-0.98;0.17;87.79;53.68;9.39;-47.30;-34.27;422.34
0.25;-1.01;0.24;83.03;58.06;10.04;-45.19;-32.10;422.65
0.23;-1.03;0.31;99.38;40.23;-1.12;-42.91;-30.59;422.62
0.19;-1.01;0.29;112.89;17.89;-5.87;-40.36;-29.67;422.46
0.21;-1.00;0.37;114.01;56.44;-12.85;-37.74;-27.75;422.11
0.15;-1.02;0.46;188.07;59.07;-12.64;-28.94;-24.42;421.48
0.18;-0.94;0.38;217.87;79.37;1.09;-23.35;-21.84;421.51
0.18;-0.92;0.50;213.56;88.70;25.79;-18.10;-19.11;422.23
0.20;-0.95;0.43;236.74;109.40;25.20;-12.83;-16.11;422.89
0.15;-0.88;0.48;249.58;116.56;31.10;-6.81;-12.71;423.76
0.11;-0.82;0.64;274.92;164.70;42.54;6.93;-3.83;426.06
0.02;-0.71;0.66;271.56;131.57;61.04;13.33;-0.16;427.76
0.08;-0.74;0.65;217.38;102.36;50.08;17.91;2.48;429.12
0.01;-0.73;0.74;203.96;104.52;41.47;22.06;5.19;430.24
-0.14;-0.73;1.03;172.13;47.46;32.26;25.54;6.43;431.11
-0.17;-0.68;1.18;218.97;17.68;48.66;30.29;6.88;432.42
0.07;-0.80;1.01;324.31;64.12;61.59;37.53;8.39;434.08
-0.06;-0.62;0.95;314.02;79.72;49.30;44.76;10.45;435.46
-0.05;-0.55;0.99;282.25;82.03;78.74;50.50;12.37;437.51
0.00;-0.50;1.08;275.29;59.86;56.51;57.36;13.94;439.26
-0.03;-0.46;0.93;269.64;59.81;36.98;63.10;15.32;440.30
-0.17;-0.30;1.12;285.84;88.93;28.98;68.86;17.42;441.05
-0.10;-0.22;0.97;287.17;81.49;34.13;75.13;19.41;442.01
-0.10;-0.14;0.91;264.92;107.57;35.99;80.48;21.98;442.98
-0.24;-0.06;0.88;201.02;85.07;35.18;84.13;24.07;443.93
-0.14;-0.05;1.14;156.25;90.84;11.55;86.53;26.13;444.24
-0.19;-0.03;1.17;121.14;55.19;-4.45;88.11;27.30;444.12
-0.19;0.00;1.08;87.70;59.33;-16.24;88.58;28.47;443.70
-0.24;0.01;1.04;41.64;45.11;9.53;88.08;29.53;443.99
-0.10;-0.07;1.07;-9.82;33.30;-6.94;86.00;29.89;443.81
-0.16;-0.03;1.14;-41.38;9.72;-9.63;83.20;29.70;443.56
-0.19;0.00;0.99;-81.66;-3.85;-13.66;79.37;29.22;443.19
-0.28;-0.00;1.05;-127.12;-33.96;-14.12;74.42;28.03;442.81
-0.26;-0.09;1.03;-162.66;-37.74;-22.99;68.55;26.73;442.19
-0.33;-0.13;1.20;-186.37;0.58;-13.51;62.15;26.50;441.82
-0.32;-0.14;1.22;-142.65;-3.36;-2.73;57.03;26.14;441.75
-0.25;-0.21;1.08;-112.82;-18.31;1.78;52.72;25.36;441.80
-0.28;-0.23;1.12;-128.71;-35.61;-1.51;47.95;24.10;441.76
-0.19;-0.30;1.20;-164.50;-33.45;-1.35;40.29;22.46;441.70
-0.19;-0.32;1.20;-128.68;-10.77;-24.74;35.82;21.87;441.03
-0.66;-0.31;1.71;-75.84;-54.14;-9.67;32.95;20.36;440.77
-0.42;-0.33;1.14;65.76;10.65;28.26;33.79;20.56;441.54
-0.23;-0.32;1.22;34.11;-35.51;57.46;33.77;19.37;443.09
-0.11;-0.35;1.13;49.64;-57.41;27.50;34.14;17.50;443.86
-0.18;-0.29;1.08;60.98;-55.50;-18.59;34.75;15.88;443.37
-0.25;-0.25;1.05;64.13;-92.95;-15.06;35.60;13.23;442.95
-0.18;-0.21;1.09;67.05;-65.90;8.52;36.47;11.38;443.18
-0.17;-0.21;1.08;76.77;-93.16;9.53;37.73;8.65;443.46
-0.17;-0.30;1.11;95.23;-142.63;23.75;39.33;4.70;444.12
-0.17;-0.19;1.24;93.02;-143.93;3.46;40.86;0.94;444.22
-0.06;-0.17;1.15;57.12;-72.20;-0.33;41.39;-0.94;444.21
0.01;-0.17;1.18;52.82;-57.96;-32.25;41.80;-2.47;443.34
0.02;-0.12;1.30;10.39;-146.75;-24.01;41.13;-6.32;442.69
0.02;-0.04;1.13;-19.76;-72.70;-61.95;39.76;-8.07;441.08
-0.03;-0.12;1.09;-8.92;19.20;-83.32;38.61;-7.37;438.83
-0.09;-0.23;1.01;51.92;13.36;-53.64;38.98;-6.79;437.38
-0.05;-0.13;1.12;88.42;-7.54;10.43;40.67;-6.83;437.69
0.01;-0.08;1.12;100.42;26.55;-1.32;42.43;-6.00;437.66
-0.05;-0.08;1.22;101.89;-5.70;-10.74;44.10;-5.98;437.38
0.03;0.09;1.32;27.27;63.22;-27.75;44.02;-4.22;436.63
-0.09;-0.12;1.17;-2.98;-16.11;-2.27;42.95;-4.48;436.57
0.00;-0.03;1.11;6.24;17.49;-0.70;42.21;-3.95;436.55
0.04;-0.08;1.11;23.93;68.20;2.16;41.92;-2.10;436.61
-0.07;-0.03;1.20;7.99;10.72;7.59;41.45;-1.45;437.00
-0.05;-0.06;1.15;9.34;1.78;9.17;40.82;-1.32;437.24
-0.12;-0.08;1.00;52.89;-326.22;16.34;41.52;-11.09;437.75
1.15;-0.27;-0.13;36.88;-11.39;3.04;41.34;-12.82;437.83
0.00;-0.00;1.18;-0.19;-17.45;1.01;40.51;-13.04;437.86
0.04;-0.03;1.15;0.82;2.10;0.22;39.69;-12.77;437.86
0.02;-0.02;1.16;-0.02;-0.14;0.02;38.88;-12.53;437.86
0.02;-0.02;1.15;-0.18;-1.57;-0.03;38.07;-12.34;437.86
0.02;-0.02;1.15;-0.33;-1.38;0.04;37.28;-12.15;437.86
0.03;-0.02;1.15;0.02;0.65;-0.42;36.52;-11.92;437.85
0.03;-0.02;1.14;-0.01;-0.35;0.25;35.77;-11.72;437.86
0.03;-0.02;1.14;-0.07;0.23;0.31;35.03;-11.51;437.87
0.03;-0.02;1.15;-0.24;-0.57;-0.10;34.30;-11.32;437.86
0.03;-0.02;1.14;-0.25;-0.43;-0.03;33.59;-11.13;437.86
0.03;-0.03;1.14;0.05;-1.35;-0.18;32.89;-10.98;437.86
0.03;-0.02;1.16;-0.10;-0.58;-0.15;32.21;-10.80;437.85
0.03;-0.03;1.14;-0.36;-0.08;-0.18;31.53;-10.61;437.85
0.03;-0.02;1.14;-0.04;0.76;-0.27;30.88;-10.40;437.84
0.03;-0.02;1.15;-0.08;-0.41;-0.09;30.24;-10.24;437.84
0.03;-0.02;1.15;0.07;-0.25;0.04;29.61;-10.06;437.84
0.02;-0.03;1.16;0.28;0.17;0.30;29.00;-9.88;437.85
0.03;-0.03;1.15;-0.28;-0.22;-0.19;28.39;-9.72;437.84
0.02;-0.02;1.14;0.19;-0.05;0.17;27.80;-9.54;437.85
0.02;-0.02;1.15;-0.28;0.06;0.14;27.22;-9.37;437.85
0.02;-0.02;1.14;0.11;0.06;-0.16;26.66;-9.20;437.85
0.03;-0.02;1.15;0.10;0.04;-0.04;26.10;-9.04;437.85
0.03;-0.02;1.15;0.02;-0.12;0.36;25.56;-8.89;437.86
0.03;-0.02;1.15;-0.02;0.01;0.08;25.03;-8.74;437.86
0.02;-0.02;1.15;-0.21;-0.05;-0.12;24.51;-8.59;437.86
0.02;-0.02;1.15;-0.02;-0.20;-0.03;24.00;-8.44;437.85
0.03;-0.02;1.15;0.04;0.18;-0.07;23.50;-8.29;437.85
0.03;-0.02;1.14;0.10;-0.20;-0.27;23.01;-8.16;437.84
0.03;-0.02;1.15;0.07;-0.03;-0.18;22.54;-8.03;437.84
0.03;-0.02;1.13;-0.11;-0.72;-0.09;22.06;-7.91;437.84
0.02;-0.03;1.15;-0.16;-0.66;0.22;21.59;-7.79;437.84
0.02;-0.02;1.16;-0.30;-1.33;0.11;21.13;-7.69;437.85
0.03;-0.03;1.14;-0.16;0.23;0.40;20.68;-7.56;437.86
0.02;-0.02;1.15;-0.04;0.18;-0.19;20.24;-7.43;437.85
0.03;-0.02;1.14;0.01;0.12;-0.44;19.82;-7.30;437.84
0.03;-0.02;1.15;-0.13;-0.05;-0.35;19.40;-7.19;437.83
0.03;-0.02;1.14;0.11;1.54;-0.09;18.99;-7.02;437.83
0.03;-0.02;1.14;0.40;0.94;0.40;18.60;-6.89;437.84
0.02;-0.02;1.16;1.11;1.11;-0.16;18.24;-6.74;437.84
0.03;-0.02;1.14;3.08;11.97;0.11;17.93;-6.32;437.84
-0.05;-0.06;1.20;3.08;14.09;106.68;17.60;-5.78;440.61
0.15;0.06;1.06;1.61;-8.37;98.62;17.34;-6.04;443.27
0.04;-0.02;1.13;-0.47;-5.56;0.31;16.96;-6.11;443.28
0.04;-0.04;1.13;4.22;14.70;-0.35;16.70;-5.63;443.27
-0.01;-0.01;1.17;1.31;2.18;-0.39;16.39;-5.45;443.26
0.05;-0.03;1.14;-4.60;-16.41;0.28;15.91;-5.82;443.27
0.02;-0.02;1.16;2.40;10.17;-0.64;15.67;-5.32;443.24
0.02;-0.02;1.15;-0.08;-0.74;-0.03;15.34;-5.26;443.24
0.01;-0.02;1.16;0.04;0.50;0.08;15.01;-5.15;443.25
0.03;-0.02;1.15;0.80;3.75;-0.18;14.71;-4.98;443.24
