ACCX;ACCY;ACCZ;GYROX;GYROY;GYROZ;ANGLX;ANGLY;ANGLZ
0.03;-0.02;1.15;0.08;-0.08;0.24;0.57;-0.62;1.76
0.03;-0.02;1.16;0.27;-0.07;-0.11;0.54;-0.64;1.76
0.02;-0.03;1.15;-0.16;0.04;-0.17;0.51;-0.64;1.75
0.03;-0.02;1.15;-0.09;0.04;0.04;0.47;-0.65;1.75
0.03;-0.02;1.15;0.07;-0.11;-0.13;0.44;-0.67;1.75
0.03;-0.02;1.14;-0.06;0.06;-0.25;0.41;-0.69;1.74
0.03;-0.02;1.15;-0.16;-0.14;0.33;0.38;-0.70;1.75
0.03;-0.03;1.15;-0.27;0.16;-0.22;0.34;-0.71;1.75
0.03;-0.03;1.14;-0.06;-0.14;0.15;0.31;-0.73;1.75
0.03;-0.02;1.15;0.10;0.09;0.06;0.28;-0.74;1.75
0.02;-0.02;1.14;0.19;-0.01;-0.17;0.26;-0.75;1.75
0.02;-0.02;1.14;-0.15;-0.04;0.21;0.23;-0.76;1.75
0.02;-0.02;1.15;0.08;-0.30;0.04;0.21;-0.77;1.75
0.03;-0.03;1.15;-0.07;0.28;0.13;0.18;-0.77;1.76
0.03;-0.03;1.15;-0.21;0.01;0.04;0.15;-0.78;1.76
0.03;-0.02;1.15;-0.02;-0.37;0.28;0.12;-0.80;1.76
0.03;-0.02;1.16;-0.19;0.12;0.03;0.10;-0.81;1.76
0.02;-0.02;1.14;-0.15;0.18;-0.13;0.07;-0.81;1.76
0.02;-0.02;1.15;-0.27;0.01;0.03;0.04;-0.82;1.76
0.03;-0.02;1.15;0.22;-0.01;-0.23;0.03;-0.83;1.76
0.03;-0.02;1.14;-0.35;-0.11;-0.14;-0.01;-0.85;1.75
0.03;-0.02;1.15;0.08;-0.04;0.09;-0.02;-0.85;1.75
0.02;-0.03;1.14;0.02;0.21;-0.23;-0.04;-0.85;1.75
0.03;-0.02;1.15;0.19;0.01;-0.07;-0.06;-0.87;1.75
0.03;-0.02;1.14;-0.06;0.07;0.06;-0.08;-0.88;1.75
0.03;-0.02;1.15;-0.10;0.16;-0.16;-0.10;-0.88;1.74
0.02;-0.02;1.15;-0.04;0.06;0.09;-0.12;-0.89;1.75
0.03;-0.02;1.14;-0.13;0.12;-0.42;-0.14;-0.89;1.74
0.03;-0.02;1.14;-0.07;-0.17;0.24;-0.16;-0.90;1.74
0.02;-0.02;1.15;-0.02;-0.23;-0.11;-0.18;-0.91;1.74
0.03;-0.03;1.15;0.23;0.15;-0.26;-0.19;-0.91;1.73
0.03;-0.02;1.15;-0.01;0.12;-0.10;-0.21;-0.92;1.73
0.03;-0.02;1.14;0.23;-0.02;-0.16;-0.22;-0.93;1.73
0.03;-0.02;1.14;0.16;-0.17;0.28;-0.24;-0.94;1.73
0.02;-0.02;1.14;0.28;0.02;0.45;-0.25;-0.94;1.74
0.02;-0.02;1.15;0.08;-0.17;-0.05;-0.27;-0.95;1.74
0.02;-0.03;1.15;0.20;-0.16;-0.19;-0.29;-0.96;1.74
0.03;-0.02;1.14;-0.01;-0.39;0.06;-0.30;-0.97;1.74
0.02;-0.03;1.15;0.08;0.06;0.24;-0.32;-0.97;1.74
0.02;-0.02;1.14;-0.01;-0.04;0.19;-0.34;-0.97;1.75
0.03;-0.02;1.15;0.07;-0.31;-0.26;-0.35;-0.99;1.74
0.03;-0.03;1.14;-0.16;0.30;0.03;-0.38;-0.99;1.74
0.02;-0.02;1.15;0.28;0.09;-0.01;-0.38;-0.99;1.74
0.02;-0.02;1.15;-0.24;0.04;-0.02;-0.40;-0.99;1.74
0.03;-0.02;1.15;-0.13;-0.31;-0.01;-0.41;-1.00;1.74
0.03;-0.02;1.15;0.17;-0.28;0.16;-0.42;-1.02;1.75
0.03;-0.03;1.14;0.08;-0.16;-0.10;-0.44;-1.03;1.74
0.03;-0.02;1.14;0.14;-0.02;-0.01;-0.45;-1.04;1.74
0.03;-0.02;1.15;0.05;-0.13;0.28;-0.46;-1.05;1.75
0.03;-0.02;1.14;-0.15;-0.04;0.13;-0.48;-1.06;1.76
0.02;-0.02;1.14;0.10;-0.39;0.42;-0.48;-1.07;1.77
0.02;-0.02;1.15;-0.12;-0.10;-0.57;-0.50;-1.07;1.75
0.02;-0.02;1.14;0.10;0.01;-0.31;-0.51;-1.07;1.75
0.03;-0.02;1.14;0.05;-0.13;0.09;-0.52;-1.08;1.75
0.03;-0.02;1.15;-0.36;-0.01;-0.05;-0.54;-1.08;1.75
0.02;-0.02;1.15;-0.13;0.10;-0.17;-0.55;-1.08;1.74
0.03;-0.03;1.14;-0.07;-0.11;0.32;-0.57;-1.09;1.75
0.02;-0.02;1.15;0.05;-0.08;0.30;-0.57;-1.09;1.76
0.02;-0.03;1.14;-0.35;-0.14;0.28;-0.60;-1.10;1.77
0.02;-0.03;1.15;-0.41;-0.02;0.01;-0.62;-1.09;1.77
0.03;-0.02;1.15;-0.24;0.02;-0.49;-0.64;-1.10;1.75
0.03;-0.02;1.15;0.20;0.06;0.03;-0.64;-1.10;1.75
0.02;-0.02;1.15;0.08;-0.31;-0.13;-0.64;-1.11;1.75
0.03;-0.02;1.15;0.16;-0.07;-0.19;-0.65;-1.11;1.75
0.02;-0.03;1.15;0.05;0.09;0.18;-0.66;-1.11;1.75
0.03;-0.02;1.14;0.05;-0.17;-0.01;-0.67;-1.12;1.75
0.02;-0.02;1.14;0.14;-0.01;0.03;-0.67;-1.12;1.75
0.03;-0.02;1.14;0.10;0.04;-0.01;-0.68;-1.13;1.75
0.03;-0.02;1.14;0.49;-0.11;-0.25;-0.68;-1.13;1.75
0.03;-0.02;1.15;-0.15;-0.22;0.38;-0.69;-1.14;1.75
0.02;-0.02;1.15;0.07;-0.17;-0.19;-0.70;-1.14;1.75
0.03;-0.02;1.14;0.19;-0.39;0.39;-0.69;-1.16;1.76
0.02;-0.02;1.16;0.17;0.04;-0.11;-0.70;-1.16;1.76
0.02;-0.03;1.15;-0.19;-0.05;-0.07;-0.71;-1.16;1.76
0.03;-0.02;1.15;-0.39;0.31;0.32;-0.73;-1.15;1.76
0.03;-0.03;1.14;0.19;-0.11;-0.19;-0.74;-1.16;1.76
0.02;-0.02;1.14;0.13;0.33;0.28;-0.74;-1.15;1.77
0.03;-0.02;1.14;-0.30;0.19;-0.23;-0.76;-1.15;1.76
0.02;-0.02;1.14;0.25;0.24;0.15;-0.76;-1.15;1.77
0.02;-0.02;1.14;0.10;-0.33;-0.07;-0.76;-1.15;1.76
0.02;-0.03;1.15;-0.18;-0.17;0.01;-0.78;-1.16;1.76
0.03;-0.02;1.15;0.04;-0.36;0.56;-0.78;-1.18;1.79
0.03;-0.02;1.15;-0.19;0.09;0.09;-0.80;-1.18;1.79
0.02;-0.02;1.15;0.05;-0.13;0.38;-0.80;-1.19;1.80
0.03;-0.02;1.15;0.07;-0.08;-0.11;-0.80;-1.19;1.79
0.03;-0.03;1.14;-0.31;-0.11;-0.10;-0.82;-1.20;1.79
0.03;-0.02;1.14;0.45;-0.05;-0.10;-0.81;-1.20;1.79
0.02;-0.02;1.14;-0.19;0.15;0.32;-0.82;-1.20;1.80
0.03;-0.02;1.15;-0.01;0.21;0.12;-0.83;-1.20;1.80
0.03;-0.03;1.14;-0.15;-0.11;-0.07;-0.84;-1.20;1.80
0.03;-0.03;1.14;0.17;0.04;-0.05;-0.85;-1.20;1.80
0.02;-0.02;1.15;-0.09;-0.25;-0.20;-0.85;-1.21;1.79
0.03;-0.02;1.15;0.16;-0.17;-0.01;-0.85;-1.22;1.79
0.02;-0.02;1.14;-0.24;0.38;0.13;-0.86;-1.20;1.79
0.02;-0.02;1.14;0.22;-0.07;-0.16;-0.86;-1.21;1.79
0.02;-0.02;1.15;-0.18;-0.13;0.12;-0.87;-1.21;1.79
0.03;-0.02;1.14;0.33;0.01;0.12;-0.87;-1.21;1.80
0.03;-0.03;1.14;-0.13;0.18;-0.05;-0.88;-1.21;1.80
0.02;-0.02;1.15;-0.39;-0.11;-0.08;-0.89;-1.21;1.79
0.03;-0.02;1.14;-0.15;-0.08;0.12;-0.90;-1.21;1.80
0.03;-0.01;1.15;-0.19;-0.22;-0.11;-0.90;-1.22;1.79
0.02;-0.02;1.15;0.07;0.10;0.12;-0.90;-1.22;1.80
0.03;-0.03;1.14;0.33;0.02;-0.22;-0.90;-1.23;1.79
0.03;-0.02;1.14;0.17;0.09;-0.59;-0.90;-1.23;1.78
0.02;-0.02;1.14;0.07;-0.11;0.04;-0.90;-1.23;1.78
0.03;-0.03;1.15;0.23;0.19;-0.11;-0.90;-1.22;1.77
0.02;-0.02;1.15;-0.24;0.21;0.21;-0.92;-1.21;1.78
0.02;-0.02;1.15;0.08;-0.13;0.33;-0.92;-1.21;1.79
0.03;-0.02;1.15;-0.15;-0.04;0.07;-0.93;-1.22;1.79
0.02;-0.02;1.15;-0.38;0.06;-0.11;-0.94;-1.21;1.79
0.03;-0.03;1.14;-0.02;-0.08;-0.22;-0.95;-1.22;1.79
0.02;-0.03;1.15;-0.09;0.41;0.15;-0.96;-1.20;1.79
0.02;-0.02;1.15;-0.15;0.12;0.30;-0.96;-1.19;1.80
0.03;-0.02;1.15;-0.18;-0.01;-0.20;-0.97;-1.20;1.79
0.02;-0.02;1.15;0.10;-0.01;-0.07;-0.98;-1.19;1.79
0.02;-0.02;1.14;-0.10;-0.17;-0.01;-0.98;-1.20;1.79
0.03;-0.03;1.15;0.13;0.30;0.09;-0.98;-1.20;1.79
0.02;-0.03;1.14;0.05;-0.37;0.07;-0.99;-1.21;1.80
0.03;-0.02;1.14;0.08;0.30;0.07;-0.99;-1.21;1.80
0.03;-0.02;1.15;0.04;0.02;0.04;-0.99;-1.21;1.80
0.03;-0.02;1.15;-0.25;0.10;-0.14;-1.00;-1.21;1.79
0.02;-0.02;1.15;0.22;-0.05;0.12;-0.99;-1.21;1.80
0.03;-0.02;1.15;-0.25;0.01;-0.01;-1.00;-1.21;1.80
0.02;-0.02;1.14;0.13;0.13;0.03;-0.99;-1.21;1.80
0.02;-0.02;1.15;-0.16;0.22;0.03;-1.00;-1.20;1.80
0.03;-0.03;1.15;-0.13;0.21;-0.08;-1.01;-1.20;1.80
0.02;-0.02;1.14;-0.12;0.36;-0.07;-1.01;-1.19;1.80
0.03;-0.02;1.15;-0.21;0.22;-0.04;-1.02;-1.19;1.79
0.02;-0.02;1.16;-0.15;0.22;-0.04;-1.03;-1.18;1.79
0.03;-0.02;1.15;-0.10;0.24;-0.43;-1.03;-1.18;1.78
0.03;-0.02;1.15;0.07;-0.19;-0.17;-1.02;-1.18;1.78
0.02;-0.02;1.15;0.25;0.16;0.01;-1.02;-1.18;1.78
0.02;-0.02;1.15;-0.02;0.18;0.10;-1.02;-1.17;1.78
0.02;-0.02;1.15;-0.15;0.33;-0.36;-1.02;-1.16;1.77
0.03;-0.02;1.15;0.10;0.15;0.03;-1.02;-1.16;1.77
0.03;-0.02;1.15;0.25;-0.10;-0.19;-1.02;-1.17;1.77
0.03;-0.02;1.14;0.25;-0.07;0.01;-1.01;-1.18;1.77
0.02;-0.03;1.15;-0.35;0.04;-0.05;-1.02;-1.18;1.76
0.02;-0.02;1.15;-0.02;0.09;-0.37;-1.02;-1.17;1.75
0.03;-0.02;1.15;0.01;-0.20;-0.22;-1.03;-1.18;1.75
0.02;-0.02;1.16;0.23;-0.01;0.27;-1.02;-1.18;1.76
0.02;-0.02;1.14;0.05;0.02;0.28;-1.02;-1.18;1.76
0.03;-0.02;1.15;0.05;0.21;-0.01;-1.02;-1.18;1.76
0.03;-0.02;1.12;0.40;-0.02;0.10;-1.01;-1.18;1.77
0.03;-0.02;1.14;0.04;0.22;0.06;-1.01;-1.18;1.77
0.01;-0.02;1.16;0.01;-0.83;-0.07;-1.01;-1.19;1.77
0.02;-0.02;1.16;0.94;1.89;-0.04;-0.99;-1.13;1.77
0.03;-0.03;1.13;-0.15;-1.53;0.32;-1.00;-1.18;1.77
0.02;-0.02;1.15;-0.38;-1.27;0.03;-1.01;-1.21;1.77
0.03;-0.02;1.14;0.10;0.80;0.03;-1.01;-1.19;1.78
0.40;0.47;1.16;-0.44;-5.20;10.36;-0.66;-1.57;2.04
-0.36;-0.45;1.19;-7.15;2.79;-2.62;-1.16;-1.22;1.97
0.02;-0.01;1.27;-14.36;4.15;-32.26;-1.58;-1.09;0.97
-0.04;-0.09;1.17;-18.65;1.28;-9.21;-2.11;-1.00;0.73
0.11;-0.01;1.15;-11.05;-13.14;13.75;-2.37;-1.44;1.11
0.02;-0.05;1.12;-8.19;3.37;-4.81;-2.59;-1.34;0.98
0.04;-0.02;1.15;-4.76;3.66;-3.36;-2.68;-1.26;0.89
0.15;0.14;1.19;-6.51;-10.22;-10.97;-2.68;-1.63;0.59
0.00;0.31;1.25;17.32;-1.90;-47.87;-1.89;-1.65;-0.70
-0.38;0.46;1.26;78.57;-14.71;-11.64;0.46;-1.74;-1.00
-0.10;0.58;1.00;57.70;8.82;50.83;2.53;-1.40;0.37
0.14;0.57;1.01;-11.28;39.69;23.23;2.72;-0.46;0.97
0.15;0.38;1.01;-93.72;58.93;14.24;-0.65;1.73;1.54
-0.12;0.28;1.30;-117.66;32.80;17.72;-3.52;2.65;2.02
0.00;0.09;1.38;53.76;39.54;61.35;-0.69;4.57;5.15
-0.04;-0.09;1.23;69.04;-18.94;49.51;1.14;3.99;6.54
-0.17;-0.18;1.12;13.53;-62.45;78.57;1.31;2.41;8.66
-0.09;-0.39;1.20;-5.69;8.91;76.16;0.80;2.65;10.64
0.11;-0.59;1.11;37.10;-33.98;72.67;1.26;1.63;12.60
-0.08;-0.59;0.95;8.36;-41.73;34.96;0.85;0.55;13.54
-0.08;-0.60;1.09;-72.62;-30.30;53.67;-1.63;-0.21;14.99
0.06;-0.65;1.28;-43.23;-51.46;44.70;-3.26;-1.60;16.20
0.03;-0.51;1.21;16.80;-19.44;26.28;-3.26;-2.03;16.80
0.02;-0.36;1.10;56.77;13.19;22.03;-2.04;-1.66;17.40
0.10;-0.22;0.97;43.50;1.22;14.48;-1.13;-1.69;17.78
0.10;-0.13;1.00;-18.56;-13.91;-1.49;-1.73;-2.12;17.74
0.05;-0.08;1.05;-42.73;-29.03;-12.31;-2.91;-2.89;17.40
0.01;-0.02;1.15;-39.93;-16.10;-3.79;-3.89;-3.25;17.30
0.13;-0.07;1.22;-14.27;-26.34;-2.92;-4.26;-4.03;17.22
0.06;-0.07;1.22;21.07;1.15;-16.05;-3.68;-3.97;16.79
0.04;-0.08;1.09;27.76;-2.31;-11.96;-2.96;-4.00;16.47
0.07;-0.07;1.11;1.01;5.60;-22.26;-2.94;-3.82;15.80
0.03;-0.08;1.13;7.03;21.19;-32.42;-2.78;-3.21;14.92
-0.05;-0.03;1.17;4.89;37.38;-25.38;-2.62;-2.15;14.26
0.09;-0.06;1.38;-23.06;23.14;-31.68;-3.23;-1.57;13.41
0.05;-0.05;1.50;-55.19;32.09;-72.57;-4.66;-0.73;11.45
-0.02;-0.03;1.88;-62.59;12.67;-46.63;-6.18;-0.38;10.24
-0.05;-0.04;2.00;-0.51;-31.98;-24.10;-6.09;-1.22;9.56
-0.02;-0.06;1.99;39.07;-96.31;17.77;-5.01;-3.64;10.02
0.03;-0.06;1.80;36.54;-78.80;47.66;-3.94;-5.75;11.36
0.31;-0.14;1.80;17.38;-141.91;46.56;-3.41;-10.13;12.80
0.15;-0.11;1.75;48.16;-130.98;19.83;-2.18;-13.36;13.32
0.03;-0.13;1.38;53.18;-107.62;34.41;-0.78;-16.07;14.28
0.17;-0.21;1.24;23.72;-171.91;19.05;-0.31;-20.43;14.79
0.07;-0.22;1.01;15.01;-141.21;-4.28;-0.15;-23.69;14.68
0.13;-0.24;0.92;28.97;-124.20;10.64;0.35;-26.62;14.97
0.32;-0.36;0.62;33.99;-178.88;-31.01;0.83;-31.18;14.13
0.06;-0.35;0.29;27.06;-162.02;-46.34;0.61;-34.80;12.93
0.11;-0.29;0.31;12.92;-77.81;-15.21;0.24;-36.37;12.52
0.42;-0.44;0.32;-35.15;-57.03;-80.51;-1.34;-37.79;10.26
0.05;-0.34;0.43;-88.99;-107.96;-89.07;-4.63;-40.29;7.59
0.12;-0.33;0.61;-60.02;-39.06;-45.75;-6.61;-40.66;6.36
0.54;-0.41;0.68;-8.04;2.15;-58.74;-7.06;-40.31;4.71
0.38;-0.33;0.57;-29.25;8.89;-91.84;-8.06;-39.73;2.32
0.36;-0.23;0.78;-82.04;17.96;-91.17;-10.37;-38.84;-0.23
0.32;-0.17;1.06;-58.68;27.09;-93.33;-11.80;-37.66;-2.66
0.42;-0.07;1.03;8.85;51.63;-96.92;-11.37;-35.91;-5.37
0.37;0.03;0.97;19.64;74.51;-132.20;-10.60;-33.63;-8.94
0.10;0.29;0.97;-6.93;61.44;-131.36;-10.26;-31.48;-12.35
0.15;0.52;1.08;-1.43;68.53;-83.49;-9.64;-28.95;-14.86
0.30;0.52;1.12;11.41;40.22;-84.46;-8.74;-27.51;-17.14
0.20;0.48;0.92;-34.67;4.60;-83.14;-8.98;-27.01;-19.30
0.22;0.41;1.11;-93.44;-18.72;-68.36;-10.93;-27.13;-21.15
0.26;0.32;1.26;-62.67;5.46;-48.37;-12.13;-26.63;-22.45
0.28;0.23;0.96;7.96;52.80;-33.18;-11.48;-25.02;-23.32
0.25;0.15;0.75;-38.57;30.79;-20.30;-12.10;-24.01;-23.86
0.24;0.14;0.93;-91.46;4.96;-18.80;-14.14;-23.65;-24.37
0.18;0.12;1.03;-47.55;42.62;-4.86;-15.00;-22.23;-24.50
0.05;0.14;0.86;17.55;85.70;31.58;-13.99;-19.24;-23.52
0.14;0.13;0.61;45.29;94.65;55.77;-12.32;-16.56;-22.02
0.19;0.02;0.41;60.08;62.97;52.68;-10.44;-15.04;-20.60
0.13;0.03;0.29;30.81;73.19;46.30;-9.29;-13.18;-19.30
0.17;0.03;0.54;15.69;123.75;38.86;-8.67;-10.10;-18.29
0.05;-0.03;0.28;184.01;159.15;2.93;0.95;-1.82;-18.13
-0.10;-0.01;0.59;-24.33;148.36;-23.27;0.27;2.34;-18.76
-0.25;-0.02;1.48;-87.03;189.28;-26.01;-2.05;7.49;-19.46
0.06;-0.06;1.73;-6.65;170.51;-37.53;-2.23;11.98;-20.51
-0.15;0.10;1.77;-5.03;102.02;-55.06;-2.28;14.83;-22.17
-0.33;0.18;1.81;-25.49;89.05;-20.91;-2.81;17.08;-22.73
-0.17;0.17;1.97;-28.64;34.93;2.54;-3.39;17.72;-22.66
-0.13;0.10;1.73;-23.44;20.89;5.99;-3.86;17.98;-22.51
-0.05;0.06;1.54;-19.40;16.48;8.74;-4.26;18.09;-22.27
-0.04;0.05;1.48;-46.90;1.61;8.30;-5.38;17.80;-22.05
-0.04;0.01;1.44;-44.76;26.09;12.21;-6.45;18.17;-21.72
-0.03;-0.05;1.52;-42.02;14.42;8.16;-7.47;18.21;-21.50
-0.09;-0.04;1.49;-28.10;17.06;7.14;-8.10;18.37;-21.31
-0.05;-0.05;1.40;6.77;8.93;10.51;-7.80;18.27;-21.02
-0.06;-0.02;1.20;11.46;12.16;7.81;-7.30;18.34;-20.77
-0.00;-0.03;1.17;-2.15;-7.46;-5.35;-7.24;17.78;-20.92
-0.08;-0.01;1.04;-1.02;-2.07;-7.03;-7.13;17.46;-21.11
-0.11;0.05;1.06;-29.46;-10.71;-1.24;-7.75;16.93;-21.14
-0.07;0.00;1.18;-29.43;-21.59;-3.52;-8.34;16.11;-21.23
-0.19;0.05;1.14;-32.99;-33.15;5.45;-9.03;15.05;-21.08
-0.13;0.01;1.21;-39.60;-25.59;18.56;-9.86;14.22;-20.60
-0.02;-0.06;1.20;-32.13;-24.94;11.78;-10.56;13.30;-20.28
-0.06;-0.06;1.19;-28.50;-20.19;1.48;-11.16;12.56;-20.24
-0.09;-0.05;1.19;-27.15;-9.76;9.40;-11.78;12.10;-19.96
-0.03;-0.06;1.16;-15.11;-4.25;6.97;-12.02;11.77;-19.76
-0.04;-0.07;1.14;-7.09;-8.75;1.55;-12.03;11.34;-19.72
-0.07;-0.06;1.10;-3.14;-8.78;5.61;-11.93;10.95;-19.57
-0.06;-0.06;1.11;-7.69;-8.57;10.12;-11.96;10.57;-19.30
-0.05;-0.06;1.12;-5.43;-0.78;10.97;-11.92;10.39;-19.01
-0.03;-0.07;1.10;-8.67;-2.72;4.42;-11.97;10.14;-18.89
-0.04;-0.07;1.14;-10.09;0.04;9.98;-12.07;9.98;-18.62
-0.05;-0.05;1.16;-3.54;-2.40;10.71;-11.97;9.77;-18.32
-0.06;-0.02;1.09;3.17;7.03;12.73;-11.66;9.84;-17.94
-0.05;0.02;1.14;-12.93;-5.17;21.60;-11.75;9.55;-17.36
-0.08;0.08;1.19;-21.99;-7.11;30.76;-12.02;9.25;-16.53
0.04;0.19;1.21;-27.72;-2.40;48.70;-12.31;8.97;-15.26
0.24;0.47;1.05;15.58;27.75;42.99;-11.25;9.35;-14.10
-0.06;0.91;0.83;7.06;13.34;47.45;-9.93;9.55;-12.82
-0.46;1.08;0.97;-46.70;2.07;112.82;-10.22;9.67;-9.77
-0.40;0.93;1.33;-62.82;-25.61;171.75;-11.11;8.99;-5.13
-0.51;0.68;1.50;28.46;-12.86;198.54;-9.79;8.75;0.03
-0.51;0.19;1.17;126.07;45.81;214.18;-5.64;10.38;6.67
-0.39;-0.35;0.84;89.40;16.64;225.17;-3.48;10.97;12.75
0.35;-1.00;0.98;-34.47;-10.97;191.87;-5.06;10.26;17.93
0.26;-1.19;1.27;-15.31;-32.59;99.84;-6.12;9.07;20.62
-0.29;-1.17;1.43;-6.10;-1.58;64.83;-6.85;8.97;22.44
-0.46;-1.14;1.54;51.85;28.27;82.42;-5.99;9.71;24.58
-0.18;-1.12;1.27;98.92;31.23;61.20;-4.01;10.43;26.23
-0.24;-0.98;0.99;65.10;5.40;32.61;-2.92;10.50;27.15
-0.29;-0.88;0.98;-10.93;-44.22;-0.36;-3.83;9.34;27.14
-0.09;-0.82;1.01;-37.05;-47.36;-11.61;-5.51;7.91;26.81
-0.05;-0.73;1.10;-22.02;-26.30;-66.60;-6.71;6.99;24.75
-0.02;-0.53;1.03;-1.11;-10.31;-81.33;-7.14;6.60;22.63
0.06;-0.13;1.20;-0.35;34.54;-99.12;-7.12;7.34;19.96
0.07;0.26;1.16;57.72;39.55;-152.89;-5.27;8.14;15.98
-0.20;0.59;0.78;53.24;51.95;-149.39;-3.14;9.52;11.95
-0.30;0.69;1.01;-59.83;-1.81;-120.65;-4.16;9.48;8.57
-0.17;0.47;1.24;16.45;10.45;-96.77;-2.89;9.92;3.64
-0.04;0.28;1.09;7.17;17.63;-66.20;-2.35;10.26;1.72
-0.04;0.19;1.26;-18.41;-0.60;-74.28;-2.61;10.07;-0.22
-0.16;0.17;1.32;17.24;11.38;-46.37;-1.90;10.34;-1.65
-0.10;0.15;1.12;48.59;32.70;-19.75;-0.44;11.09;-2.19
-0.01;0.13;1.03;17.29;21.34;-14.63;0.16;11.43;-2.57
-0.09;0.12;1.06;-11.92;6.56;-17.55;-0.04;11.46;-3.04
-0.20;0.13;1.12;-15.69;16.76;5.31;-0.34;11.86;-2.90
-0.10;0.05;1.08;-12.36;8.88;11.05;-0.61;11.95;-2.60
-0.14;0.01;1.08;-50.96;-20.85;17.63;-1.98;11.29;-2.11
-0.07;-0.03;1.27;-62.54;-19.36;28.77;-3.56;10.64;-1.36
0.03;-0.09;1.33;-24.12;-26.69;16.62;-4.22;9.67;-0.89
-0.05;-0.01;1.19;-8.13;21.57;20.62;-4.36;10.10;-0.34
0.64;-0.10;1.26;-30.54;-42.30;28.48;-5.23;8.15;0.52
0.35;-0.07;1.47;-23.09;-34.39;-27.01;-5.80;6.79;-0.24
0.05;0.10;1.26;17.87;25.06;22.35;-5.13;7.27;0.37
0.67;-0.05;1.11;-31.38;-16.57;25.19;-5.86;6.11;1.02
0.43;-0.08;1.15;-83.35;-65.76;-75.27;-8.09;3.80;-1.09
-0.29;0.06;1.29;-18.12;-11.84;-41.91;-8.34;3.67;-2.18
0.37;-0.26;0.82;110.10;63.99;-37.46;-5.40;4.97;-3.23
-0.52;-0.11;0.42;25.00;31.70;-117.67;-4.77;6.59;-6.40
-1.08;0.00;1.03;-141.35;6.93;-64.43;-8.27;7.56;-8.08
-1.07;-0.25;1.51;4.31;49.54;-21.76;-8.09;9.49;-8.73
-0.97;-0.41;1.18;58.01;56.82;-11.20;-6.56;11.49;-9.04
-1.03;-0.35;1.08;24.57;26.15;25.66;-5.99;12.64;-8.38
-0.35;-0.58;0.81;-37.19;49.98;-53.62;-7.42;14.04;-9.88
-1.21;-0.21;1.59;10.10;-35.27;-57.21;-7.09;13.50;-11.42
-0.65;-0.06;0.92;98.51;24.24;66.73;-4.48;14.52;-9.69
-0.29;0.09;1.13;-29.02;-87.65;67.61;-5.09;12.18;-7.86
0.17;0.10;1.11;19.10;-52.88;108.70;-4.39;10.38;-4.93
0.60;-0.00;1.09;-7.92;-57.43;75.26;-4.52;8.07;-2.90
0.32;0.06;1.15;-3.20;-65.20;33.51;-4.47;5.89;-1.99
0.40;0.03;1.04;20.85;-6.89;62.22;-3.54;5.09;0.50
0.35;-0.01;1.10;11.84;-29.44;31.58;-3.17;3.90;1.32
-0.10;0.01;1.46;-18.88;-74.10;22.73;-3.60;1.94;1.93
0.03;-0.05;1.39;-0.30;-7.61;16.06;-3.58;1.68;2.37
0.15;-0.11;1.28;25.44;53.87;-11.76;-2.95;2.90;2.06
0.15;-0.10;1.19;19.75;34.82;-23.90;-2.45;3.63;1.42
0.08;-0.10;1.02;17.58;9.70;-21.76;-2.03;3.73;0.83
0.02;-0.05;0.87;-15.55;-19.55;3.43;-2.46;3.13;0.92
-0.00;-0.12;1.25;-8.21;-27.29;-13.65;-2.74;2.35;0.55
0.02;-0.14;1.08;-18.96;-10.30;-28.01;-3.31;2.02;-0.18
-0.12;-0.10;1.34;-29.95;-8.86;-20.92;-4.20;1.82;-0.81
0.03;-0.14;1.25;8.89;3.70;-38.62;-4.01;1.86;-1.85
-0.03;-0.10;1.13;11.72;4.67;-45.87;-3.73;1.97;-3.04
-0.17;-0.03;1.11;-8.48;7.54;-30.89;-3.92;2.30;-3.91
-0.08;-0.04;1.22;-20.65;-12.65;-20.23;-4.42;1.99;-4.45
-0.01;-0.05;1.24;-20.19;-29.32;-26.97;-4.90;1.22;-5.16
-0.08;-0.05;1.27;-18.25;-24.28;-29.94;-5.32;0.62;-5.96
-0.10;-0.01;1.22;-4.13;-2.40;-17.82;-5.34;0.64;-6.45
-0.02;-0.01;1.19;9.59;-1.35;-12.97;-4.99;0.61;-6.78
-0.12;0.04;1.00;1.40;-5.73;-8.37;-4.81;0.55;-7.04
-0.07;0.05;1.04;-25.61;-11.87;4.65;-5.33;0.30;-6.92
-0.03;0.10;1.14;-22.71;-8.23;10.09;-5.70;0.11;-6.65
-0.07;0.26;1.19;-2.97;27.66;24.97;-5.44;0.89;-5.98
-0.01;0.47;1.15;27.59;51.06;47.98;-4.18;2.18;-4.73
0.08;0.61;1.14;9.38;23.25;54.25;-3.31;2.72;-3.21
-0.27;0.69;1.30;36.08;17.41;80.30;-0.96;3.70;0.88
-0.12;0.50;1.08;72.95;59.93;123.05;1.58;5.41;4.45
-0.20;0.28;1.03;39.20;-12.59;125.49;2.84;5.15;7.84
-0.23;0.00;1.03;-10.67;-28.98;126.94;2.51;4.53;11.27
-0.01;-0.40;1.15;9.65;8.53;118.71;2.37;4.71;14.95
0.69;-0.91;0.33;10.66;-6.37;19.00;1.77;3.86;15.46
-0.35;-0.81;1.33;-32.53;8.97;33.77;0.39;4.20;16.34
-0.30;-1.07;1.31;-5.69;32.88;30.41;-0.44;5.13;17.16
-0.30;-1.08;1.49;25.88;-8.95;24.56;-0.34;4.92;17.85
-0.56;-0.93;1.25;44.39;-10.10;32.61;0.26;4.85;18.69
-0.49;-0.83;1.21;7.23;-58.16;74.65;-0.08;3.49;20.71
0.01;-0.75;1.09;6.68;-43.69;52.64;-0.59;2.30;22.08
0.32;-0.63;1.08;-2.51;-30.19;-0.81;-1.13;1.25;22.06
0.29;-0.36;1.04;-3.28;-15.55;-62.81;-1.50;0.58;20.36
-0.03;-0.03;0.99;20.30;3.38;-73.00;-0.93;0.69;18.24
-0.18;0.21;1.12;28.68;36.73;-55.04;0.06;1.84;16.70
-0.13;0.35;0.95;40.13;70.09;-21.55;1.48;3.77;16.12
0.05;0.38;0.90;2.62;66.64;-15.56;1.95;5.35;15.72
0.17;0.36;1.18;-35.83;-3.03;-43.17;1.26;5.04;14.55
0.15;0.29;1.22;-13.11;-26.57;-84.17;1.13;4.12;12.28
-0.11;0.28;1.10;-12.76;-15.14;-77.91;1.05;3.74;10.25
-0.05;0.24;1.17;-14.06;-5.46;-46.01;0.87;3.56;9.01
0.03;0.15;1.14;8.54;-21.58;-50.25;1.21;2.92;7.70
-0.18;0.18;0.98;7.15;3.83;-36.62;1.56;3.13;6.71
-0.16;0.14;1.05;-20.28;8.94;-6.07;1.06;3.49;6.53
-0.10;0.11;1.12;-22.88;0.07;3.78;0.56;3.52;6.63
-0.07;0.08;1.13;-17.48;0.76;7.72;0.16;3.53;6.84
-0.06;0.02;1.07;-3.17;9.87;13.23;0.09;3.79;7.20
-0.04;-0.02;1.14;-6.04;9.83;14.96;-0.09;4.00;7.59
-0.08;-0.05;1.15;0.23;17.54;14.70;-0.12;4.47;7.98
-0.13;-0.06;1.17;2.10;20.89;17.58;-0.11;5.05;8.46
-0.08;-0.08;1.18;-0.31;10.60;15.48;-0.19;5.29;8.86
-0.04;-0.10;1.16;-1.84;7.81;10.41;-0.33;5.43;9.14
-0.06;-0.11;1.20;-7.64;-5.85;2.07;-0.63;5.22;9.20
-0.08;-0.10;1.23;1.62;-0.42;4.94;-0.65;5.17;9.34
0.00;-0.11;1.20;7.36;4.73;-1.27;-0.54;5.20;9.31
-0.03;-0.09;1.11;10.23;12.33;-15.49;-0.36;5.43;8.91
-0.13;-0.04;1.13;3.67;15.22;-15.97;-0.29;5.85;8.47
-0.14;0.00;1.19;7.78;15.66;-6.91;-0.07;6.30;8.28
-0.13;-0.01;1.12;9.84;5.00;-10.01;0.18;6.43;8.02
-0.11;-0.01;1.10;-8.74;-16.51;1.86;-0.07;5.98;8.07
-0.09;-0.03;1.17;-11.41;-14.97;-2.04;-0.39;5.55;8.02
-0.08;-0.02;1.17;2.75;-3.20;-0.88;-0.33;5.44;7.99
-0.07;-0.03;1.15;13.26;4.21;-2.77;-0.00;5.51;7.92
-0.10;-0.01;1.09;4.97;6.88;-1.15;0.13;5.72;7.88
-0.09;-0.01;1.17;-1.64;2.27;-2.97;0.08;5.75;7.81
-0.12;-0.02;1.19;5.29;-1.82;-2.54;0.20;5.70;7.74
-0.13;-0.02;1.18;6.11;0.06;5.11;0.34;5.71;7.88
-0.12;-0.02;1.16;4.45;-0.56;1.84;0.44;5.70;7.92
-0.10;-0.02;1.16;6.07;3.41;4.88;0.57;5.77;8.06
-0.08;-0.02;1.14;4.14;7.34;1.99;0.65;5.91;8.11
-0.05;-0.03;1.14;1.58;-1.79;1.26;0.65;5.80;8.14
-0.09;-0.02;1.14;-3.80;-1.50;3.31;0.52;5.73;8.23
-0.03;-0.03;1.17;-1.96;0.51;0.16;0.43;5.65;8.24
-0.08;-0.01;1.14;4.56;5.09;-4.55;0.61;5.83;8.04
-0.06;-0.01;1.12;-5.05;1.81;-1.03;0.45;5.82;8.01
-0.03;-0.03;1.16;-7.67;-2.60;-8.83;0.21;5.67;7.77
-0.22;-0.02;1.15;18.31;23.84;-7.15;1.16;7.03;7.39
-0.22;-0.00;1.11;25.35;23.17;6.51;1.78;7.70;7.56
-0.10;-0.03;1.07;4.97;0.64;13.98;1.85;7.68;7.93
-0.09;-0.02;1.10;-12.13;-11.06;2.91;1.48;7.32;8.01
-0.10;-0.02;1.18;-6.83;-5.64;-5.10;1.24;7.12;7.88
-0.13;-0.01;1.15;2.42;9.55;2.32;1.28;7.35;7.94
-0.05;-0.02;1.15;1.69;-1.33;7.52;1.28;7.22;8.14
-0.02;-0.02;1.14;-9.26;-4.11;-1.88;0.96;6.98;8.08
-0.03;-0.00;1.18;-7.72;-7.62;-3.59;0.73;6.67;7.99
-0.03;0.00;1.21;0.30;-5.35;-7.75;0.73;6.43;7.78
-0.08;0.02;1.14;6.23;-2.57;-8.74;0.89;6.31;7.55
-0.09;0.04;1.11;-10.51;-4.49;-1.75;0.63;6.15;7.50
-0.07;0.03;1.19;-15.57;-7.90;-0.89;0.25;5.89;7.48
-0.04;0.05;1.22;-11.96;-4.94;-1.50;-0.03;5.68;7.44
0.01;0.08;1.17;-18.36;-16.20;4.53;-0.44;5.13;7.56
0.20;0.11;1.16;-20.67;-19.29;16.30;-0.87;4.36;7.99
0.36;0.12;1.24;-31.11;-22.59;-4.88;-1.58;3.38;7.85
0.29;0.17;1.22;-8.59;-29.96;-28.36;-1.68;2.17;6.98
0.16;0.20;1.14;-10.53;-33.61;-20.88;-1.75;1.13;6.43
0.29;0.11;1.33;-22.04;-37.41;-22.66;-2.24;-0.14;5.80
0.15;0.06;1.20;12.71;-25.29;-27.44;-1.80;-0.94;5.06
0.07;-0.06;1.17;14.71;-11.70;-8.80;-1.45;-1.28;4.83
0.07;-0.24;1.06;34.54;-15.82;-31.46;-0.72;-1.75;3.95
-0.41;-0.27;1.05;11.35;-5.93;-57.73;-0.62;-1.53;2.45
-0.78;-0.29;0.93;-3.40;-39.23;-30.42;-0.89;-1.88;1.63
-0.54;-0.43;0.87;-17.60;15.95;-35.59;-1.68;-0.97;0.66
-0.85;-0.46;1.19;19.32;48.39;-32.25;-1.41;0.82;-0.17
-0.76;-0.50;1.00;23.99;38.13;-25.96;-0.97;2.50;-0.98
-0.83;-0.43;1.11;-21.90;20.50;2.25;-1.80;3.58;-0.92
-0.57;-0.47;1.27;-29.98;12.74;23.41;-2.82;4.20;-0.31
-0.46;-0.36;1.25;21.01;29.55;-3.39;-2.45;5.21;-0.40
-0.77;-0.11;0.90;8.71;4.19;17.80;-2.23;5.97;0.10
-0.30;-0.03;1.06;-58.50;-14.05;86.86;-3.71;5.79;2.36
0.42;-0.04;1.29;-33.03;-15.82;49.41;-4.54;4.91;3.69
0.38;0.08;1.08;-29.58;-43.88;0.54;-5.20;3.24;3.71
0.48;0.20;1.10;-46.16;-8.81;10.41;-6.13;2.54;3.98
0.56;0.20;1.29;4.52;32.83;-8.83;-5.76;2.95;3.74
0.28;0.21;1.30;21.98;9.41;-13.65;-4.85;2.96;3.33
0.09;0.16;1.25;39.33;-5.78;-5.78;-3.57;2.68;3.17
0.05;0.09;1.09;27.33;2.53;7.63;-2.69;2.64;3.38
-0.00;0.01;1.10;0.25;5.09;15.09;-2.62;2.73;3.77
0.10;-0.03;1.14;-20.91;-7.06;15.61;-3.15;2.39;4.19
0.22;-0.09;1.20;-16.73;-31.56;-17.01;-3.60;1.32;3.74
-0.07;-0.04;1.21;-5.43;-25.90;-27.15;-3.71;0.69;3.03
-0.09;-0.01;1.21;1.53;-10.52;1.55;-3.60;0.47;3.07
0.04;-0.04;1.24;20.98;-0.83;-6.34;-3.01;0.41;2.90
-0.10;0.03;1.03;25.64;-1.40;-15.43;-2.26;0.47;2.50
-0.08;0.01;1.05;-18.67;-19.64;2.39;-2.78;-0.06;2.57
-0.06;-0.05;1.23;-21.09;-20.17;6.53;-3.34;-0.55;2.76
-0.03;-0.07;1.27;-6.09;-15.58;2.35;-3.49;-0.91;2.82
-0.07;-0.08;1.22;10.13;-12.22;2.71;-3.23;-1.15;2.89
-0.07;-0.09;1.09;12.37;4.30;8.09;-2.94;-0.96;3.10
-0.03;-0.12;1.07;3.90;2.56;15.09;-2.90;-0.84;3.51
0.01;-0.16;1.10;-8.07;2.96;11.93;-3.22;-0.75;3.84
0.01;-0.19;1.14;-1.98;-8.27;3.96;-3.40;-0.95;3.95
0.01;-0.21;1.12;1.72;-5.73;3.11;-3.49;-1.09;4.03
-0.02;-0.24;1.15;1.17;-21.91;-3.68;-3.62;-1.65;3.93
-0.10;-0.44;1.13;-11.02;-20.65;-14.78;-4.51;-2.62;3.14
-0.07;-0.56;1.19;-1.48;-16.94;-12.23;-4.93;-2.98;2.80
0.08;-0.65;1.11;6.75;-3.44;-21.20;-5.23;-3.07;2.23
-0.03;-0.71;1.29;-7.54;-19.73;-62.08;-5.90;-3.53;0.49
-0.16;-0.59;1.26;13.18;19.31;-61.41;-5.90;-2.87;-1.11
-0.06;-0.42;1.08;53.53;87.95;-53.70;-4.76;-0.44;-2.56
0.25;-0.35;0.93;11.65;16.70;-98.01;-4.68;-0.20;-5.30
0.09;-0.19;0.97;-49.84;-25.50;-139.21;-6.05;-0.93;-8.92
0.02;-0.06;1.14;-76.42;-33.64;-133.36;-8.09;-1.86;-12.65
0.03;0.06;1.40;-36.67;14.65;-158.16;-8.99;-1.40;-17.56
-0.07;0.20;1.35;34.19;30.39;-157.52;-7.78;-0.55;-21.65
-0.19;0.31;1.04;52.75;31.55;-137.97;-5.94;0.46;-25.38
-0.15;0.47;1.15;8.77;-5.55;-104.71;-5.19;0.41;-28.20
-0.15;0.57;1.14;22.19;-12.97;-97.81;-4.05;0.17;-30.75
-0.26;0.64;1.06;16.30;-17.50;-64.55;-3.00;-0.14;-32.55
-0.26;0.68;1.09;-1.72;-2.60;-16.51;-2.45;-0.04;-32.98
-0.15;0.69;1.20;13.10;-14.97;17.32;-1.50;-0.36;-32.50
-0.20;0.73;1.18;39.23;2.22;52.53;0.13;-0.17;-31.08
-0.18;0.67;0.94;7.10;-14.28;98.42;1.02;-0.60;-27.14
-0.18;0.61;1.21;-26.42;-40.88;116.12;0.81;-1.52;-24.12
-0.13;0.47;1.33;28.17;-22.65;127.81;1.89;-2.01;-20.67
-0.06;0.31;1.17;50.88;-8.16;135.48;3.48;-2.14;-17.02
-0.04;0.13;1.21;57.85;4.93;122.59;5.01;-1.93;-13.83
-0.16;-0.06;1.06;75.29;20.28;127.89;6.84;-1.19;-10.38
-0.11;-0.30;0.98;51.52;13.49;124.44;7.76;-0.71;-7.02
-0.05;-0.45;1.07;28.57;9.86;116.36;7.92;-0.40;-3.87
-0.06;-0.52;1.08;15.21;-3.35;90.82;7.68;-0.44;-1.42
-0.08;-0.50;1.05;-1.67;4.39;85.83;7.00;-0.26;0.81
0.03;-0.46;1.12;-2.30;43.75;63.69;6.35;1.06;2.78
0.04;-0.36;1.15;-4.70;39.86;30.04;5.77;2.06;3.59
-0.02;-0.24;1.16;-7.72;35.02;18.91;5.23;2.93;4.09
0.02;-0.20;1.14;-7.12;38.76;8.76;4.74;3.87;4.32
0.05;-0.16;1.20;-16.88;27.84;-8.74;4.03;4.52;4.08
-0.02;-0.14;1.21;-16.94;20.86;-23.20;3.39;4.98;3.48
-0.04;-0.12;1.23;-8.45;22.91;-21.39;3.00;5.52;2.90
0.01;-0.08;1.20;4.33;25.87;-27.06;2.97;6.09;2.17
-0.10;-0.04;1.18;-1.49;12.62;-36.98;2.84;6.39;1.17
-0.11;0.02;1.22;0.30;25.63;-27.99;2.81;7.04;0.41
-0.14;0.07;1.41;-0.54;24.24;-20.81;2.79;7.72;-0.21
-0.09;0.06;1.61;-4.56;-18.16;-6.81;2.65;7.15;-0.40
0.04;0.07;1.85;-2.56;12.30;-7.99;2.57;7.31;-0.62
-0.06;0.08;1.94;30.16;45.78;-45.35;3.34;8.37;-1.80
-0.54;0.13;1.85;-77.75;-40.17;2.74;1.27;7.44;-1.72
0.00;-0.06;2.00;-85.02;-80.54;61.86;-1.03;5.16;-0.05
0.01;-0.06;2.00;23.61;-105.30;18.36;-0.45;2.37;0.42
-0.38;0.02;1.95;15.65;-126.42;28.22;-0.01;-0.81;1.18
-0.29;0.07;1.59;35.90;-123.47;59.28;1.01;-3.98;2.84
-0.09;0.06;1.34;21.41;-132.69;63.80;1.59;-7.20;4.50
0.33;-0.04;1.13;-12.16;-156.72;43.55;1.16;-12.14;5.85
0.26;-0.11;1.10;-18.44;-140.07;-25.39;0.57;-15.71;5.19
-0.27;-0.06;0.74;-15.61;-177.24;-26.17;0.07;-19.88;4.46
-0.08;-0.12;0.97;-61.06;-235.53;-23.87;-1.69;-25.63;3.82
0.03;-0.10;0.77;64.97;-176.39;-11.81;-0.08;-29.82;3.50
0.04;-0.13;0.19;108.22;-98.05;-13.99;2.21;-31.96;3.12
0.01;-0.01;0.09;37.40;-86.71;9.45;3.07;-33.84;3.38
0.00;0.03;0.11;27.64;-71.98;1.00;4.00;-35.01;3.41
0.28;-0.05;-0.11;35.09;-43.43;23.15;4.53;-37.52;4.04
0.16;-0.03;0.18;-68.79;-74.97;-49.85;0.62;-41.54;1.29
0.01;0.03;0.38;-16.76;26.39;19.63;0.23;-39.99;1.86
0.44;-0.12;0.43;9.96;50.21;26.27;0.34;-38.63;2.57
0.61;-0.11;0.48;16.39;41.20;-10.95;0.63;-37.73;2.29
0.44;-0.06;0.39;21.12;35.63;-38.49;1.11;-36.88;1.21
0.18;0.02;0.46;37.12;56.02;-32.20;2.08;-35.13;0.37
0.04;0.05;0.50;30.48;101.92;-18.48;2.95;-31.82;-0.13
0.13;0.06;0.60;41.18;168.88;4.44;4.11;-26.77;-0.00
0.28;0.06;0.63;42.34;162.22;-37.76;5.18;-22.54;-0.98
-0.29;0.18;0.53;-29.64;104.36;-64.43;4.55;-18.88;-2.72
-0.29;0.17;1.15;-57.77;146.73;66.86;2.83;-13.80;-0.65
0.48;-0.04;1.24;28.43;187.70;44.42;3.50;-8.96;0.55
0.23;-0.02;0.96;11.75;105.61;-60.40;3.72;-6.26;-1.08
-0.31;0.18;1.11;-122.94;40.99;-31.07;0.54;-4.77;-1.92
-0.09;0.07;1.70;-47.90;117.63;8.94;-0.70;-1.51;-1.68
-0.07;0.02;1.62;-18.33;95.29;-11.78;-1.15;1.09;-2.00
-0.28;0.02;1.68;-120.60;65.26;9.22;-4.31;2.98;-1.75
0.10;-0.08;2.00;-59.77;100.65;26.57;-5.85;5.53;-1.03
0.06;-0.08;2.00;12.23;118.44;-12.22;-5.45;8.52;-1.36
-0.21;0.04;1.69;10.16;116.79;8.25;-5.02;11.92;-1.11
-0.06;-0.04;1.80;-69.31;16.39;34.42;-6.84;12.17;-0.15
0.10;-0.13;1.92;-62.50;-32.04;3.20;-8.43;11.02;-0.06
-0.03;-0.12;1.69;-0.94;-3.82;-3.93;-8.37;10.72;-0.17
0.01;-0.11;1.41;55.18;58.39;4.35;-6.77;12.10;-0.04
-0.04;-0.05;1.15;36.27;14.01;4.54;-5.72;12.27;0.08
-0.07;-0.01;1.03;-14.70;-11.98;-9.44;-5.99;11.80;-0.17
-0.16;0.01;1.17;-24.97;1.83;3.45;-6.55;11.77;-0.07
-0.07;-0.05;1.22;-8.15;-7.33;9.90;-6.68;11.41;0.20
-0.09;-0.09;1.21;3.53;-6.48;-6.11;-6.54;11.09;0.04
-0.12;-0.10;1.15;11.40;-1.56;-7.67;-6.16;10.93;-0.19
-0.06;-0.11;1.13;6.63;6.13;-4.55;-5.96;10.94;-0.32
-0.07;-0.07;1.10;17.26;6.93;-15.97;-5.47;10.97;-0.74
-0.24;-0.03;1.04;11.91;0.25;-3.17;-5.07;11.01;-0.82
-0.14;-0.03;1.03;-25.41;-21.35;12.80;-5.67;10.37;-0.48
0.03;-0.07;1.11;-36.80;-24.75;-2.98;-6.60;9.49;-0.56
-0.03;-0.06;1.16;-18.99;3.58;-11.09;-7.05;9.42;-0.87
-0.07;-0.06;1.10;-12.16;14.89;-9.82;-7.28;9.69;-1.12
0.01;-0.08;1.15;-26.97;-15.21;-14.95;-7.93;9.08;-1.53
-0.13;-0.07;1.16;-9.37;-11.29;-16.25;-8.21;8.57;-2.19
-0.03;-0.12;1.12;-12.16;-4.80;-13.44;-8.49;8.30;-2.55
0.01;-0.12;1.16;-32.57;-33.12;-29.38;-9.30;7.25;-3.35
-0.12;-0.09;1.17;-36.60;-37.53;-35.18;-10.17;6.22;-4.30
-0.12;-0.01;1.23;-14.22;10.45;-13.14;-10.35;6.48;-4.65
0.02;0.12;1.19;1.93;4.30;-12.14;-9.97;6.44;-4.98
-0.04;0.40;1.07;-17.05;-16.69;-15.00;-9.83;5.91;-5.39
-0.10;0.74;1.35;-59.34;-13.07;28.06;-10.60;5.51;-4.66
0.01;0.86;1.58;17.56;12.73;59.38;-9.36;5.73;-3.05
-0.22;0.82;1.22;89.94;16.44;75.05;-6.20;6.18;-1.03
-0.41;0.59;0.92;55.26;-12.89;134.24;-3.98;5.98;3.00
-0.09;0.17;0.68;46.52;-1.76;173.66;-2.41;5.93;7.69
0.14;-0.22;0.88;5.43;2.88;163.14;-2.46;5.75;12.09
-0.09;-0.60;1.13;38.56;33.20;117.99;-1.91;6.57;15.28
-0.49;-0.79;1.05;25.65;81.66;120.54;-1.74;8.89;18.54
-0.30;-0.97;1.56;-56.36;-38.30;116.67;-3.69;7.87;21.57
-0.15;-1.03;1.76;53.58;12.41;83.66;-2.76;8.11;23.83
-0.16;-0.99;1.17;112.89;52.96;65.05;-0.45;9.43;25.58
-0.23;-0.85;1.02;63.15;42.96;65.74;0.54;10.52;27.36
-0.06;-0.86;1.20;-79.66;-71.61;16.83;-4.53;6.41;28.30
-0.13;-0.92;1.34;-57.02;-57.56;-30.57;-6.65;4.77;27.45
-0.23;-0.85;1.27;-12.83;-12.56;-74.75;-7.44;4.47;25.43
-0.20;-0.67;1.01;42.02;20.47;-106.31;-6.76;5.06;22.56
-0.29;-0.41;0.91;-8.96;-0.20;-121.70;-7.23;5.20;19.39
-0.18;-0.19;1.05;-55.98;-35.29;-152.25;-8.73;4.33;15.28
-0.45;0.14;1.02;-49.73;-16.01;-140.49;-9.81;4.23;11.35
-0.20;0.45;1.08;-42.44;-2.39;-90.40;-10.31;4.23;9.00
0.20;0.51;1.13;-30.33;13.83;-109.26;-10.51;4.39;5.94
-0.18;0.60;0.98;-69.63;-39.46;-154.77;-11.53;3.42;1.91
-0.20;0.60;1.30;-120.31;-52.40;-112.62;-14.52;1.88;-1.58
0.20;0.47;1.38;-41.03;6.77;-106.77;-15.02;1.91;-4.57
0.32;0.40;1.15;0.04;17.86;-115.43;-14.41;2.09;-7.57
0.30;0.39;1.14;-26.45;10.89;-100.69;-14.53;2.11;-10.29
0.44;0.35;1.43;-27.09;-25.11;-75.53;-14.74;1.12;-12.33
0.51;0.23;1.44;12.25;-44.20;-76.97;-14.00;-0.37;-14.33
0.22;0.23;1.34;58.57;-9.76;-57.70;-12.00;-0.78;-15.88
0.28;0.16;1.21;55.56;-27.87;0.82;-10.16;-1.73;-15.86
0.39;-0.04;1.02;38.48;-33.29;-6.45;-8.98;-2.98;-16.04
-0.38;0.03;0.95;18.40;-22.02;-33.58;-8.21;-3.17;-17.08
-0.17;-0.00;1.00;-19.02;-10.02;36.39;-8.55;-3.18;-16.09
0.08;-0.23;1.15;11.43;19.72;-10.17;-8.30;-2.66;-16.37
-0.31;-0.18;1.08;22.89;2.79;-46.19;-7.67;-2.26;-17.62
-0.63;-0.08;0.97;18.22;39.40;-11.43;-7.10;-0.55;-17.93
-0.33;-0.22;1.03;17.07;30.56;-4.74;-6.69;0.56;-18.05
-0.44;-0.12;1.00;11.14;85.51;-17.72;-6.35;3.32;-18.55
-0.48;0.06;1.08;-43.87;63.66;8.99;-7.30;5.33;-18.32
-0.39;0.21;1.41;-47.43;28.33;32.15;-8.27;6.24;-17.45
-0.01;0.30;1.59;28.14;30.10;87.32;-7.07;7.01;-14.83
0.43;0.40;1.38;74.81;18.62;34.21;-4.77;7.07;-13.94
0.23;0.57;1.01;30.48;-4.75;-15.58;-3.38;6.64;-14.36
-0.13;0.57;1.10;-30.68;-56.20;42.90;-3.65;5.05;-13.16
0.34;0.21;1.09;-14.22;-40.14;39.45;-3.77;3.63;-12.13
-0.12;0.03;1.13;-19.83;-34.78;7.34;-4.21;2.72;-11.93
-0.30;-0.18;1.18;-49.98;-69.91;72.30;-5.59;1.06;-9.97
-0.06;-0.37;1.19;41.90;36.85;69.37;-4.74;2.02;-8.17
-0.21;-0.51;0.91;68.33;49.73;52.06;-3.33;3.46;-6.77
-0.45;-0.60;0.98;-14.77;29.66;50.25;-4.09;4.46;-5.46
-0.31;-0.74;0.98;4.97;45.64;51.20;-4.45;5.97;-3.87
-0.26;-0.74;0.90;-35.83;58.57;32.54;-5.97;7.58;-2.99
-0.37;-0.62;1.29;-39.92;56.44;13.58;-7.31;9.14;-2.63
-0.52;-0.50;1.35;5.96;41.35;15.78;-7.31;10.37;-2.20
-0.58;-0.36;1.33;40.07;45.43;12.70;-6.31;11.74;-1.86
-0.54;-0.37;1.39;62.91;29.02;6.83;-4.80;12.58;-1.68
-0.61;-0.20;1.33;57.20;10.71;22.10;-3.31;13.05;-1.08
-0.36;0.03;1.43;25.56;33.99;42.91;-2.52;13.99;0.12
0.13;-0.07;1.23;-7.11;-66.88;39.43;-2.71;11.90;1.14
0.07;0.02;0.99;33.18;-28.28;56.28;-1.62;10.72;2.89
0.55;-0.10;0.68;61.46;90.24;54.73;-0.06;12.19;4.37
0.44;-0.05;0.77;-78.97;-48.78;-6.23;-2.19;10.09;4.20
0.11;0.04;1.44;-104.22;-71.90;-12.98;-4.87;7.90;3.85
0.00;0.03;1.44;14.98;6.13;29.78;-4.37;7.90;4.62
0.12;-0.07;1.25;47.59;-1.90;33.05;-3.08;7.58;5.51
0.10;-0.06;1.05;-17.49;-40.36;10.73;-3.54;6.26;5.80
0.10;-0.07;1.14;-51.12;-40.10;-13.35;-4.84;5.02;5.46
-0.07;-0.08;1.39;-15.96;-48.04;-11.70;-5.22;3.70;5.14
-0.16;-0.06;1.30;55.81;-2.56;7.14;-3.69;3.70;5.33
-0.02;-0.04;1.01;17.29;-12.54;3.75;-2.62;2.88;5.57
-0.03;-0.04;1.05;0.37;-11.98;-3.00;-2.60;2.51;5.48
0.01;-0.05;1.15;20.14;-0.83;6.91;-2.06;2.43;5.67
0.00;-0.05;1.18;43.96;10.65;-0.75;-0.91;2.66;5.65
-0.03;-0.04;1.13;48.10;-0.10;-4.95;0.35;2.64;5.51
-0.07;0.01;1.05;32.02;-13.46;-9.68;1.17;2.32;5.26
-0.07;0.05;1.08;18.91;-1.94;-3.64;1.69;2.29;5.16
-0.11;0.06;0.97;11.24;10.93;-2.05;2.02;2.66;5.11
0.02;-0.01;1.06;-23.78;-33.52;-9.53;1.37;1.74;4.86
-0.08;0.01;1.13;-31.86;-29.14;-12.23;0.47;0.98;4.52
-0.02;-0.02;1.17;-9.64;-10.17;-7.10;0.16;0.68;4.30
-0.04;-0.02;1.20;11.99;15.60;2.22;0.44;1.10;4.36
-0.02;-0.01;1.07;24.86;37.98;-2.57;1.08;2.10;4.29
-0.03;0.02;1.08;11.47;23.08;-3.46;1.37;2.67;4.20
-0.09;0.04;1.10;-5.14;12.41;-7.50;1.25;3.05;3.99
-0.06;0.03;1.11;-20.91;-15.15;-3.47;0.70;2.64;3.90
-0.02;0.01;1.15;-14.16;-12.63;-2.34;0.33;2.29;3.84
-0.02;-0.00;1.18;-6.24;-8.72;-6.08;0.15;2.02;3.67
-0.04;-0.01;1.14;12.14;9.12;-10.89;0.46;2.26;3.37
-0.08;0.01;1.12;8.80;20.09;-4.81;0.69;2.81;3.25
-0.04;0.00;1.16;6.23;7.99;-2.25;0.86;3.03;3.18
-0.07;-0.00;1.14;5.81;9.75;-3.62;1.00;3.30;3.08
-0.04;0.00;1.15;0.05;9.41;1.90;0.98;3.51;3.13
-0.00;-0.03;1.21;2.07;7.43;-1.61;0.99;3.64;3.09
-0.08;0.00;1.16;7.29;10.12;-2.66;1.16;3.90;3.02
-0.06;-0.00;1.15;2.86;10.41;1.17;1.21;4.17;3.05
-0.03;-0.01;1.16;-2.68;7.26;3.35;1.11;4.31;3.14
-0.04;-0.01;1.19;-3.51;1.02;-0.37;0.98;4.28;3.13
-0.06;-0.01;1.17;-1.70;1.78;1.75;0.91;4.30;3.18
-0.02;-0.02;1.16;-0.48;3.41;-0.72;0.86;4.32;3.16
-0.07;-0.02;1.15;1.06;-3.88;-1.15;0.85;4.21;3.13
-0.10;-0.01;1.13;6.30;1.96;0.53;1.01;4.29;3.14
-0.08;-0.00;1.09;-2.36;6.60;5.43;0.93;4.46;3.29
-0.03;-0.02;1.14;-5.78;-2.49;-1.58;0.74;4.33;3.25
-0.10;-0.01;1.09;-11.61;-6.25;2.97;0.41;4.19;3.33
-0.05;-0.03;1.12;-13.41;-1.56;-0.07;0.03;4.12;3.33
-0.06;-0.03;1.17;-7.92;-6.97;-1.32;-0.21;3.91;3.29
-0.09;-0.03;1.12;4.27;8.27;-5.23;-0.12;4.14;3.15
-0.09;-0.01;1.07;-2.01;8.02;-1.94;-0.18;4.36;3.10
-0.06;-0.01;1.10;0.08;8.16;-4.59;-0.18;4.55;2.97
-0.08;-0.00;1.09;-3.49;3.48;-7.26;-0.27;4.64;2.78
-0.08;-0.01;1.14;-8.54;6.64;-4.19;-0.53;4.82;2.65
-0.06;-0.00;1.18;-5.31;7.52;-4.83;-0.66;4.98;2.52
-0.04;-0.01;1.20;3.61;-0.34;-13.49;-0.56;4.90;2.14
-0.09;0.01;1.22;8.22;-7.23;-18.05;-0.34;4.70;1.67
-0.20;0.12;1.49;7.76;3.69;-0.10;-0.04;4.85;1.67
-0.11;0.16;1.79;69.53;55.67;30.33;1.83;6.24;2.46
0.07;0.16;1.55;38.31;16.76;34.80;2.88;6.49;3.37
0.08;0.11;1.61;-64.48;-55.46;28.22;1.20;4.84;4.13
-0.14;0.11;2.00;-57.20;-54.33;53.99;-0.23;3.44;5.53
-0.14;0.10;2.00;31.82;-16.07;71.03;0.71;3.01;7.52
-0.05;0.08;1.75;49.78;-110.31;75.45;2.21;-0.26;9.78
-0.13;0.06;1.71;-62.19;-197.12;60.04;0.61;-5.20;11.35
-0.03;-0.03;1.82;-60.64;-194.01;60.27;-1.02;-10.21;12.97
0.15;-0.16;1.75;18.04;-178.46;33.86;-0.60;-14.99;13.92
0.04;-0.18;1.14;54.48;-129.30;-3.82;0.62;-18.02;13.82
0.11;-0.21;0.70;42.91;-165.50;-28.02;1.50;-22.34;13.04
-0.19;-0.11;0.28;30.01;-70.17;-34.33;1.99;-23.23;12.11
0.06;-0.17;0.48;14.10;-190.91;-89.35;2.30;-32.23;7.64
-0.21;-0.08;0.28;1.12;-143.17;-63.64;2.10;-34.89;5.86
-0.05;-0.01;0.47;3.17;-16.28;2.15;2.12;-34.58;5.93
0.31;-0.09;0.70;12.71;-61.18;-16.97;2.31;-35.93;5.47
0.02;-0.01;0.68;8.51;-59.64;-20.40;2.48;-36.82;4.92
0.15;-0.01;0.77;26.31;-17.06;25.61;3.11;-36.76;5.61
0.40;-0.04;0.78;39.29;14.94;33.51;4.05;-36.15;6.51
0.52;-0.00;0.90;30.27;-12.08;-7.47;4.77;-36.34;6.31
0.24;0.06;0.83;9.18;-24.01;-32.14;4.99;-36.55;5.44
0.18;0.12;0.90;0.80;5.11;15.09;5.04;-35.88;5.85
0.36;0.08;0.95;17.09;38.56;21.19;5.44;-34.56;6.40
0.40;0.05;0.95;-5.49;-5.01;1.00;5.23;-34.44;6.43
0.27;0.08;1.08;-24.45;-16.43;8.44;4.50;-34.48;6.67
0.39;0.03;1.20;-7.52;-3.94;12.03;4.24;-34.24;6.99
0.43;0.03;1.12;22.19;18.54;-2.77;4.77;-33.47;6.91
0.36;0.04;1.06;20.80;-4.45;-5.38;5.23;-33.28;6.77
0.26;0.07;1.04;1.04;-15.98;-4.02;5.22;-33.30;6.66
0.36;0.08;1.10;6.34;14.24;8.36;5.35;-32.59;6.89
0.41;0.05;1.06;11.01;10.82;-6.04;5.56;-32.07;6.73
0.32;0.07;1.02;-3.32;4.25;-8.37;5.42;-31.65;6.50
0.31;0.08;1.03;-19.72;4.85;-0.69;4.86;-31.20;6.48
0.38;0.05;1.11;-17.90;9.23;-0.60;4.34;-30.70;6.46
0.31;0.05;1.06;-16.02;-0.74;-5.90;3.67;-30.42;6.23
0.30;0.04;1.10;-11.96;2.85;3.66;3.31;-30.03;6.33
0.30;0.02;1.00;4.78;15.38;-7.70;3.38;-29.37;6.13
0.26;0.05;0.80;6.94;1.38;-9.07;3.55;-29.09;5.89
0.18;0.09;0.59;-12.90;3.69;-7.64;3.26;-28.70;5.67
0.27;0.08;0.36;3.93;25.77;7.19;3.44;-28.11;5.86
0.32;0.04;0.01;-1.31;61.66;-11.56;3.48;-27.54;5.55
-0.03;0.05;0.25;-38.30;39.17;5.63;2.62;-25.85;5.70
-0.04;0.00;0.45;17.61;22.10;29.32;3.03;-24.66;6.46
0.04;-0.02;0.54;82.89;19.55;54.94;5.11;-23.73;7.94
0.02;-0.06;0.20;118.92;-29.70;22.96;8.31;-24.24;8.66
-0.00;-0.01;0.22;-12.79;19.73;72.01;7.75;-23.23;10.53
0.79;-0.27;1.01;-146.80;-43.41;-7.52;3.54;-24.55;10.32
0.29;-0.11;1.73;-93.35;15.09;-113.43;1.02;-23.85;7.38
-0.27;0.14;2.00;-22.15;150.02;-57.36;0.49;-19.26;5.83
0.38;0.06;2.00;7.96;131.49;-34.94;0.72;-15.60;4.88
0.18;0.13;1.85;-26.24;70.93;-51.68;0.11;-13.59;3.54
0.09;0.20;1.86;-54.15;65.31;12.59;-1.21;-11.64;3.88
0.39;0.07;1.86;-31.64;97.80;41.87;-2.02;-8.96;5.05
0.48;-0.01;1.75;-23.73;24.28;-13.38;-2.58;-8.47;4.70
0.09;0.10;1.64;-28.02;11.38;-3.68;-3.32;-8.01;4.59
0.27;0.04;1.60;29.93;67.26;30.24;-2.43;-6.26;5.41
0.45;-0.04;1.30;37.69;30.31;0.41;-1.41;-5.70;5.42
0.26;-0.01;1.13;6.88;1.70;-13.76;-1.21;-5.80;5.05
0.13;0.04;1.14;5.81;59.25;-0.33;-1.00;-4.30;5.04
0.18;0.03;1.19;21.33;64.51;-1.01;-0.39;-2.67;5.01
0.10;0.06;1.09;8.01;63.54;-11.46;-0.11;-1.04;4.70
0.02;0.07;1.13;-13.69;70.59;-1.23;-0.39;0.76;4.67
0.13;0.02;1.28;-4.31;50.59;5.23;-0.48;1.97;4.81
0.11;0.02;1.22;6.95;42.99;-10.16;-0.27;2.97;4.54
-0.05;0.07;1.15;6.19;65.32;-2.65;-0.03;4.81;4.46
0.01;0.05;1.19;9.49;33.38;-3.56;0.27;5.59;4.36
-0.06;0.07;1.08;0.85;15.38;-0.08;0.36;5.95;4.36
-0.02;0.04;1.12;-4.16;9.89;11.64;0.28;6.10;4.66
0.00;0.03;1.20;-1.75;26.73;8.39;0.25;6.68;4.89
-0.02;0.03;1.15;9.96;26.76;5.20;0.55;7.30;5.04
-0.01;0.02;1.08;-2.74;18.01;11.61;0.42;8.07;5.64
0.03;0.01;1.16;-9.28;9.96;4.56;0.19;8.14;5.76
0.01;-0.02;1.18;-11.98;4.80;2.51;-0.15;8.10;5.83
-0.04;0.00;1.22;-8.83;10.88;1.41;-0.37;8.26;5.86
-0.02;-0.05;1.15;6.54;7.84;4.12;-0.23;8.34;5.98
-0.02;-0.13;1.09;-14.24;-5.82;7.93;-0.73;8.04;6.20
-0.05;-0.22;1.13;-35.99;-21.00;9.29;-1.88;7.37;6.45
-0.01;-0.42;1.09;-51.20;-20.94;19.17;-3.57;6.69;6.95
0.20;-0.65;1.16;-64.97;-20.16;6.47;-5.79;5.88;7.13
0.20;-0.76;1.20;-30.70;-4.45;-26.75;-7.03;5.53;6.43
0.14;-0.76;1.13;-4.47;19.57;-57.94;-7.62;5.85;4.87
-0.19;-0.62;1.06;-11.26;6.57;-76.91;-8.30;6.04;2.71
-0.11;-0.54;1.11;-49.67;-10.27;-73.67;-9.88;5.73;0.80
0.11;-0.43;1.26;-33.75;14.48;-113.26;-10.92;5.93;-2.26
-0.06;-0.16;1.16;4.33;25.54;-173.87;-10.72;6.61;-7.47
-0.30;0.17;0.96;-55.37;-14.04;-139.36;-11.76;6.42;-11.10
0.01;0.31;1.02;-87.46;4.77;-114.17;-13.59;6.42;-14.29
0.07;0.33;1.36;-75.02;1.98;-130.54;-15.04;6.30;-17.82
-0.19;0.38;1.38;-58.80;-25.14;-130.02;-15.97;5.66;-21.20
-0.29;0.39;1.44;-15.63;-9.04;-90.05;-15.81;5.49;-23.63
-0.19;0.33;1.24;33.72;13.23;-48.02;-14.31;5.88;-24.98
-0.03;0.24;1.10;42.11;29.67;-40.45;-12.71;6.55;-26.03
-0.00;0.17;1.05;11.78;-14.33;-45.12;-11.97;6.04;-27.25
-0.18;0.17;1.22;-7.23;-21.59;-26.30;-11.81;5.43;-28.03
-0.04;0.12;1.28;30.86;19.02;-4.17;-10.68;5.84;-28.14
0.02;0.12;1.15;45.99;25.54;-7.96;-9.12;6.38;-28.36
-0.06;0.13;1.07;14.57;3.66;-19.73;-8.44;6.40;-28.87
-0.06;0.07;1.13;-9.08;-13.73;4.13;-8.44;5.97;-28.76
0.02;0.00;1.13;9.96;4.97;5.66;-7.99;5.97;-28.60
-0.01;-0.02;1.13;8.23;-5.29;6.38;-7.65;5.73;-28.44
-0.06;-0.04;1.15;8.65;9.64;7.25;-7.31;5.93;-28.24
0.01;-0.05;1.15;8.72;5.11;19.40;-6.97;5.94;-27.70
0.05;-0.07;1.19;8.22;1.66;8.38;-6.69;5.82;-27.48
0.01;-0.04;1.20;22.69;4.62;5.99;-5.91;5.83;-27.29
-0.02;-0.03;1.11;32.60;12.28;5.81;-4.95;6.06;-27.14
-0.01;-0.01;1.07;13.24;5.75;11.80;-4.53;6.10;-26.83
0.04;-0.02;1.09;3.12;2.01;8.83;-4.38;5.99;-26.59
-0.01;-0.02;1.11;1.52;-2.17;1.90;-4.28;5.83;-26.54
-0.02;-0.03;1.16;-3.26;-1.96;5.02;-4.31;5.68;-26.41
-0.03;-0.04;1.20;4.94;5.84;5.00;-4.13;5.75;-26.27
-0.01;-0.06;1.15;9.38;6.18;8.44;-3.87;5.80;-26.05
-0.02;-0.06;1.18;2.27;2.07;4.33;-3.79;5.75;-25.93
0.03;-0.06;1.18;11.03;4.62;2.56;-3.48;5.74;-25.87
-0.04;-0.05;1.13;5.26;-1.75;7.58;-3.25;5.59;-25.56
-0.02;-0.06;1.17;1.69;-4.91;6.64;-3.20;5.38;-25.39
-0.07;-0.04;1.17;7.03;-0.01;12.41;-2.99;5.33;-25.05
0.08;-0.08;1.12;3.06;4.54;13.72;-2.93;5.26;-24.70
0.02;-0.06;1.10;1.27;6.33;2.91;-2.89;5.30;-24.62
-0.01;-0.04;1.15;-3.19;5.25;-0.01;-2.95;5.34;-24.62
-0.05;-0.03;1.17;-6.53;0.82;5.17;-3.09;5.30;-24.48
-0.05;-0.03;1.18;-3.26;4.94;14.41;-3.14;5.38;-24.08
0.03;-0.04;1.14;0.54;4.62;17.28;-3.11;5.37;-23.62
0.08;-0.04;1.18;-7.25;-2.52;4.83;-3.27;5.12;-23.49
0.19;-0.02;1.15;-2.33;-0.85;8.86;-3.29;4.81;-23.22
0.40;0.02;1.17;-5.08;1.22;4.56;-3.36;4.38;-23.10
0.54;0.10;1.22;-7.37;-4.34;-10.54;-3.41;3.73;-23.37
0.54;0.15;1.28;3.85;-2.69;-31.72;-3.14;3.17;-24.23
0.36;0.05;0.93;20.08;-6.94;-41.72;-2.03;2.36;-26.35
0.25;-0.01;0.83;-51.67;-12.59;-89.17;-3.42;1.63;-28.85
-0.50;-0.05;1.08;-55.57;28.01;-104.16;-4.80;2.79;-31.56
-0.58;-0.11;1.19;-62.10;-26.43;-26.23;-6.48;2.49;-32.29
-0.55;-0.28;1.53;-52.64;5.86;-61.97;-7.90;2.93;-33.97
-0.66;-0.20;1.10;76.68;106.86;8.80;-5.62;6.56;-33.70
-0.31;-0.19;0.82;-23.46;49.90;26.01;-6.34;8.14;-32.97
-0.12;-0.28;1.01;-86.68;-10.40;0.03;-8.79;7.81;-32.97
-0.27;-0.32;1.27;-90.68;-32.10;12.33;-11.24;7.00;-32.64
-0.08;-0.31;1.45;-32.39;-14.02;6.57;-12.10;6.54;-32.46
-0.19;-0.23;1.38;14.63;-1.27;0.94;-11.63;6.51;-32.44
-0.12;-0.13;1.26;22.51;-8.63;2.82;-10.93;6.26;-32.36
-0.16;-0.06;1.15;22.40;-10.98;13.15;-10.17;5.99;-32.01
0.00;-0.09;1.02;-12.33;-38.28;19.86;-10.39;4.89;-31.49
0.07;-0.11;1.22;-27.75;-52.83;16.28;-11.12;3.13;-30.99
0.07;-0.12;1.19;-0.93;-30.52;-4.71;-11.03;2.19;-31.11
-0.03;-0.09;1.12;7.61;-10.25;-9.01;-10.71;1.92;-31.35
-0.06;-0.06;1.04;19.46;0.30;4.24;-10.04;1.94;-31.23
-0.01;-0.06;0.99;4.22;-4.48;9.72;-9.80;1.79;-30.96
0.01;-0.10;1.05;-32.71;-12.71;7.00;-10.54;1.42;-30.78
0.10;-0.13;1.25;-29.92;-20.23;-3.84;-11.26;0.75;-30.89
0.01;-0.14;1.24;13.84;-2.04;-5.12;-10.80;0.68;-31.03
0.02;-0.15;1.20;22.02;13.28;-10.04;-10.14;0.99;-31.30
0.06;-0.13;1.08;21.29;-9.79;-11.07;-9.50;0.66;-31.60
0.01;-0.09;1.04;12.81;-21.00;-6.25;-9.02;0.00;-31.79
0.08;-0.11;0.97;8.20;13.25;2.86;-8.75;0.25;-31.71
0.10;-0.10;1.03;-11.23;19.72;-5.58;-8.99;0.69;-31.87
0.02;-0.09;1.18;-17.22;-5.21;-2.07;-9.35;0.52;-31.93
-0.01;-0.08;1.20;9.64;14.39;11.58;-9.00;0.88;-31.63
0.00;-0.09;1.16;15.29;27.69;12.91;-8.50;1.59;-31.28
0.01;-0.09;1.07;14.78;25.84;10.80;-8.04;2.21;-31.00
0.03;-0.12;1.05;7.04;25.00;15.99;-7.81;2.83;-30.55
0.02;-0.13;1.11;-15.54;19.55;11.34;-8.19;3.27;-30.24
-0.04;-0.17;1.22;-11.75;21.32;-0.85;-8.53;3.87;-30.27
0.00;-0.21;1.15;6.66;21.40;-19.72;-8.38;4.37;-30.82
-0.02;-0.25;1.19;3.85;-4.98;-58.34;-8.35;4.17;-32.39
-0.42;-0.19;1.33;2.71;3.06;-49.50;-8.23;4.47;-33.73
-0.32;-0.20;1.43;23.47;55.49;-23.52;-7.58;6.08;-34.37
-0.45;-0.11;1.55;16.75;30.06;-34.75;-7.03;7.08;-35.34
-0.55;-0.08;1.44;-0.59;23.63;-1.38;-6.95;7.94;-35.37
-0.15;-0.22;1.48;-34.07;45.61;-1.17;-7.90;9.14;-35.41
-0.67;-0.20;1.95;-62.79;-31.62;-62.13;-9.43;8.49;-37.02
-0.56;-0.19;1.50;-4.77;-14.60;2.76;-9.47;8.32;-36.95
-0.38;-0.17;1.11;-2.73;8.01;8.65;-9.50;8.73;-36.68
-0.18;-0.26;1.07;-52.16;-43.06;-4.85;-10.92;7.57;-36.81
-0.38;-0.14;1.23;-16.31;-13.33;39.49;-11.23;7.37;-35.75
-0.09;-0.24;1.19;29.85;-32.17;79.03;-10.40;6.41;-33.53
0.11;-0.28;1.13;45.47;-37.06;70.09;-9.29;5.25;-31.71
-0.03;-0.17;1.06;49.10;-60.80;47.93;-7.93;3.51;-30.37
-0.09;-0.11;0.95;21.20;-58.05;38.16;-7.34;2.00;-29.34
-0.04;-0.08;1.16;39.78;-64.36;38.25;-6.21;0.29;-28.31
-0.07;-0.05;0.92;64.75;-65.56;39.25;-4.43;-1.37;-27.25
0.08;-0.04;0.90;62.86;-54.04;73.78;-2.47;-3.09;-24.96
0.09;-0.02;0.90;52.60;-31.62;53.92;-1.05;-3.97;-23.50
0.14;-0.06;0.90;47.10;-76.63;51.28;0.15;-6.09;-22.12
-0.02;-0.00;0.93;40.62;-40.91;62.96;1.26;-7.07;-20.36
0.25;-0.05;0.95;41.35;-41.27;82.76;2.25;-8.26;-18.21
0.39;-0.02;0.76;4.27;-57.61;33.15;2.39;-11.39;-16.58
0.47;-0.01;0.98;-9.44;-34.81;37.49;2.06;-12.66;-15.49
0.46;0.01;1.13;36.25;-38.23;29.81;2.99;-13.86;-14.69
0.47;-0.01;0.88;29.88;-17.01;19.41;3.68;-14.58;-14.18
0.36;0.06;0.92;-7.75;-29.65;50.70;3.36;-15.85;-12.16
0.58;-0.00;0.93;16.01;17.34;48.28;3.73;-15.70;-10.80
0.53;0.03;1.00;9.88;11.37;29.74;3.94;-15.63;-10.00
0.38;0.02;0.79;3.01;-0.37;4.99;3.95;-15.84;-9.87
0.24;0.05;1.03;-42.06;3.03;14.71;2.80;-15.69;-9.47
0.23;-0.01;1.28;-24.47;-21.70;20.74;2.12;-16.13;-8.93
0.21;-0.04;1.19;5.24;6.19;3.38;2.19;-15.84;-8.84
0.18;-0.04;1.13;8.69;0.71;9.69;2.34;-15.67;-8.58
0.18;-0.03;1.07;-0.35;2.10;26.83;2.26;-15.49;-7.88
0.27;-0.03;1.16;-8.79;10.88;24.47;1.94;-15.13;-7.20
0.21;-0.02;1.22;2.16;17.66;9.77;1.95;-14.49;-6.89
0.22;-0.03;1.11;18.56;27.48;7.43;2.36;-13.72;-6.70
0.17;-0.00;1.03;5.29;18.99;4.50;2.45;-13.13;-6.58
0.23;0.02;1.10;-8.56;1.58;1.86;2.18;-13.06;-6.53
0.19;0.11;1.12;-19.78;8.45;-1.35;1.72;-12.76;-6.56
0.16;0.18;1.23;5.88;30.99;2.07;1.99;-11.82;-6.51
0.07;0.24;1.11;5.35;19.06;13.19;2.33;-11.14;-6.15
0.13;0.32;1.15;-18.28;10.51;25.22;2.08;-10.73;-5.47
0.05;0.45;1.32;-4.93;17.96;44.76;2.27;-10.08;-4.26
0.02;0.59;1.29;11.09;45.75;67.34;3.00;-8.72;-2.51
0.07;0.56;1.25;-4.02;27.89;106.79;3.28;-7.74;0.80
0.23;0.49;1.45;5.35;-1.56;91.83;3.68;-7.76;3.28
-0.06;0.52;1.39;32.14;-8.27;92.97;4.82;-7.78;5.70
-0.37;0.38;1.40;63.76;-28.52;156.32;6.71;-8.17;10.07
0.23;-0.13;0.96;61.84;-15.93;183.37;8.09;-8.66;15.03
-0.01;-0.28;1.08;61.07;32.97;94.62;9.26;-7.61;17.58
-0.43;-0.29;1.01;91.21;66.54;122.93;11.26;-5.33;20.90
0.03;-0.45;0.76;47.85;83.58;162.30;11.66;-3.12;25.12
0.64;-0.67;1.02;-10.45;16.79;84.36;10.72;-3.05;27.31
-0.02;-0.51;0.98;-6.64;-34.17;-9.23;9.79;-3.87;27.06
-0.27;-0.43;0.91;-35.23;12.51;37.83;8.19;-3.21;28.16
0.19;-0.46;1.22;-52.88;41.78;55.74;6.21;-2.13;29.72
0.38;-0.41;1.28;-22.13;7.28;-25.67;5.23;-2.15;29.03
-0.06;-0.21;1.10;2.14;-5.35;-41.50;4.98;-2.20;27.91
-0.10;-0.14;1.12;-2.64;31.02;-7.58;4.68;-1.24;27.70
-0.03;-0.15;1.22;16.74;25.48;-3.93;4.90;-0.49;27.59
-0.04;-0.09;1.09;30.14;7.70;-9.65;5.48;-0.24;27.34
0.02;-0.07;1.00;3.50;14.54;3.67;5.39;0.13;27.44
0.33;-0.10;1.15;-6.94;40.59;8.97;5.01;0.94;27.69
0.32;-0.12;1.18;1.98;14.28;-28.60;4.87;1.01;26.95
0.22;-0.12;1.09;-27.57;-20.80;-38.11;3.83;0.15;25.77
0.32;-0.14;1.11;-51.81;-14.51;-33.35;2.27;-0.52;24.87
0.48;-0.23;1.36;-65.25;-44.14;-75.79;0.36;-2.01;22.82
0.27;-0.18;1.32;-42.06;-51.72;-80.20;-0.89;-3.55;20.65
0.51;-0.17;1.29;-21.38;-1.93;-53.84;-1.55;-3.91;19.20
0.51;-0.15;1.36;13.91;-27.24;-99.53;-1.24;-4.93;16.51
0.21;-0.04;0.85;30.72;-14.75;-101.76;-0.41;-5.50;13.66
0.07;0.04;0.93;-42.56;-47.26;-61.65;-1.44;-6.67;12.06
0.17;-0.00;1.18;-36.45;-23.79;-45.17;-2.42;-7.36;10.80
0.07;-0.01;0.98;-14.41;12.86;-70.94;-2.82;-6.90;8.60
-0.00;-0.06;1.13;-72.97;-14.07;-67.90;-4.69;-7.12;6.83
-0.00;-0.09;1.29;-46.60;18.91;-79.72;-5.95;-6.45;4.60
-0.37;-0.02;1.17;-0.80;49.69;-72.16;-5.87;-4.67;2.65
-0.46;0.02;1.07;-9.89;48.79;-11.96;-5.99;-2.83;2.33
-0.19;-0.06;1.19;22.63;32.39;-14.66;-4.73;-0.89;1.54
-0.31;-0.06;1.01;25.53;2.88;-11.91;-4.04;-0.47;1.23
-0.36;-0.09;1.20;4.59;-20.71;2.25;-3.90;-0.70;1.29
-0.27;-0.11;1.34;16.83;-6.77;12.38;-3.47;-0.65;1.61
-0.03;-0.14;1.19;39.52;21.95;17.96;-2.45;-0.01;2.11
-0.02;-0.11;1.15;45.09;-3.81;-6.78;-1.18;-0.10;1.91
-0.24;0.01;1.06;28.33;-24.17;-9.20;-0.43;-0.46;1.67
-0.31;0.08;1.02;9.67;-25.81;24.90;-0.10;-0.82;2.34
-0.00;-0.03;1.09;22.46;-6.56;42.18;0.49;-0.98;3.52
0.13;-0.09;1.08;33.44;-14.88;10.32;1.25;-1.46;3.79
0.01;-0.03;0.82;40.86;-10.10;-15.20;2.26;-1.71;3.38
-0.09;-0.03;0.67;-3.75;-27.70;-8.07;2.07;-2.29;3.16
-0.04;-0.11;0.93;-36.30;-37.58;1.90;0.97;-3.17;3.21
-0.05;-0.14;1.01;-8.01;4.82;5.92;0.58;-2.92;3.37
0.01;-0.15;1.11;19.99;29.66;3.26;1.00;-1.99;3.47
-0.01;-0.18;0.97;43.44;34.60;-14.01;1.93;-1.03;3.09
-0.02;-0.17;0.92;-7.89;-7.07;-13.44;1.48;-1.17;2.73
0.00;-0.13;1.06;-0.15;23.22;-16.07;1.30;-0.56;2.31
-0.02;-0.13;0.94;16.49;62.39;-10.49;1.56;1.12;2.03
-0.07;-0.10;1.00;-23.70;35.51;-5.53;0.79;2.11;1.88
0.03;-0.15;1.14;-35.52;33.38;-2.91;-0.30;2.93;1.80
0.08;-0.08;1.22;-14.97;71.43;-17.10;-0.77;4.69;1.34
-0.07;-0.07;1.04;-22.41;55.95;-32.36;-1.41;6.14;0.46
0.01;-0.11;1.11;-53.28;15.66;-28.92;-2.91;6.43;-0.32
-0.02;-0.09;1.20;-27.93;15.02;-41.01;-4.03;6.91;-1.96
-0.08;-0.08;1.14;-15.22;36.27;-39.39;-4.45;7.84;-3.06
-0.10;-0.02;1.10;-7.35;64.68;-22.80;-4.56;9.43;-3.65
0.07;-0.06;1.01;8.68;80.44;-7.73;-4.29;11.38;-3.87
0.10;-0.10;1.07;-21.54;57.63;-31.79;-4.87;12.57;-4.73
-0.04;-0.09;1.09;-23.06;22.41;-56.19;-5.45;12.93;-6.19
-0.14;-0.08;1.13;-23.77;-8.97;-43.76;-6.04;12.56;-7.37
-0.05;-0.06;1.08;-16.06;46.07;-27.67;-6.42;13.62;-8.15
0.18;-0.14;1.16;-0.59;51.49;-35.21;-6.43;14.50;-9.06
0.00;-0.17;1.23;-11.66;-4.91;-92.22;-6.81;14.06;-11.92
-0.38;0.00;1.18;-45.46;-30.56;-61.64;-7.92;13.30;-13.65
-0.20;-0.01;1.53;-8.39;12.91;-0.48;-7.98;13.51;-13.66
0.15;-0.09;1.24;35.55;99.22;-15.87;-6.92;15.84;-14.10
0.14;-0.02;1.21;-15.98;21.03;-63.61;-7.22;15.94;-15.82
-0.18;0.10;1.38;-60.79;0.62;-79.12;-8.62;15.78;-17.96
-0.35;0.11;1.61;-28.35;34.70;-35.79;-9.13;16.61;-18.92
-0.08;0.03;1.58;17.17;39.37;-20.60;-8.47;17.38;-19.48
-0.08;0.04;1.37;8.52;25.93;-37.39;-8.04;17.78;-20.49
-0.23;0.03;1.33;-13.58;-2.68;-34.36;-8.22;17.55;-21.42
-0.25;0.03;1.40;-7.46;-3.24;-11.00;-8.25;17.30;-21.75
-0.23;0.05;1.24;28.80;15.54;9.89;-7.29;17.57;-21.48
-0.05;-0.01;1.10;9.72;1.23;9.83;-6.89;17.30;-21.21
-0.05;-0.02;1.15;-30.70;-37.73;-1.61;-7.55;16.04;-21.26
-0.06;-0.05;1.29;-15.83;-41.06;0.56;-7.88;14.64;-21.24
-0.09;-0.08;1.23;17.38;-4.30;5.31;-7.33;14.31;-21.10
-0.12;-0.06;1.20;22.48;21.83;16.15;-6.67;14.69;-20.68
-0.15;-0.06;1.19;15.91;22.25;23.09;-6.16;15.13;-20.05
-0.07;-0.08;1.18;12.42;1.02;27.51;-5.77;14.92;-19.28
0.06;-0.12;1.17;0.94;-24.30;10.94;-5.74;13.85;-18.96
-0.12;-0.10;1.28;-9.00;-31.32;11.70;-5.95;12.84;-18.64
-0.06;-0.13;1.44;-12.10;-34.54;22.21;-6.26;11.68;-18.02
0.03;-0.14;1.51;10.36;-27.38;18.56;-5.97;10.72;-17.53
0.05;-0.13;1.44;10.71;-41.96;0.80;-5.67;9.36;-17.51
-0.02;-0.08;1.50;-4.02;-66.05;-5.49;-5.81;5.96;-17.79
0.04;-0.09;1.41;27.43;-48.92;0.82;-5.04;4.51;-17.77
0.02;-0.07;1.25;15.01;-56.86;4.74;-4.61;2.90;-17.64
0.09;-0.10;1.22;5.62;-37.79;2.73;-4.45;1.76;-17.56
0.05;-0.12;1.27;8.74;-40.75;-19.93;-4.20;0.45;-18.18
-0.12;-0.10;1.23;18.95;-60.86;-25.10;-3.72;-1.01;-18.83
-0.19;-0.09;1.17;7.21;-29.84;-1.50;-3.53;-1.64;-18.88
-0.01;-0.12;1.42;-1.46;-52.69;9.63;-3.59;-2.94;-18.63
0.04;-0.15;1.35;37.90;-83.85;-43.70;-2.60;-5.21;-19.85
-0.28;-0.08;0.94;12.54;-78.07;-46.07;-2.30;-6.86;-21.09
-0.34;-0.05;1.13;-89.49;-130.39;-1.81;-4.57;-9.72;-21.14
-0.10;-0.07;1.37;-22.38;-72.95;10.54;-5.15;-11.45;-20.84
-0.03;-0.09;1.06;15.58;-43.70;15.15;-4.72;-12.34;-20.44
0.11;-0.09;0.96;-27.83;-79.50;20.12;-5.46;-14.32;-19.89
0.27;-0.13;1.08;-30.01;-79.33;-3.44;-6.37;-16.69;-20.00
0.25;-0.13;1.19;16.40;-60.39;-30.51;-5.92;-18.17;-20.82
0.03;-0.07;0.98;60.48;-34.40;-34.20;-4.28;-18.75;-21.75
0.02;-0.03;0.79;58.25;5.64;-0.85;-2.64;-18.25;-21.77
0.18;-0.02;0.88;37.61;-1.03;14.12;-1.61;-18.14;-21.39
0.24;-0.05;0.92;48.11;-16.08;-17.35;-0.36;-18.48;-21.86
0.09;-0.01;0.81;51.18;-37.69;-31.47;0.99;-19.23;-22.71
0.05;0.03;0.92;39.76;-22.22;0.93;2.10;-19.51;-22.68
0.14;0.01;0.98;65.36;-4.89;17.29;3.73;-19.41;-22.23
0.20;-0.01;0.82;71.99;4.64;13.45;5.83;-19.15;-21.81
0.24;0.00;0.78;32.74;-6.10;2.57;6.55;-19.25;-21.75
0.20;0.01;0.89;4.91;-24.25;-3.17;6.56;-19.73;-21.83
0.21;-0.00;0.87;9.47;-5.72;1.64;6.68;-19.76;-21.79
0.16;0.01;0.96;2.97;-0.81;4.54;6.63;-19.58;-21.66
0.24;-0.01;0.96;-3.25;-2.56;14.96;6.40;-19.53;-21.26
0.28;-0.04;1.02;-3.22;-1.41;12.44;6.16;-19.48;-20.92
0.32;-0.06;1.05;-0.50;12.76;2.93;5.97;-19.09;-20.85
0.30;-0.06;1.11;0.57;13.23;2.99;5.82;-18.64;-20.77
0.35;-0.09;1.14;3.58;13.96;2.54;5.74;-18.16;-20.69
0.37;-0.08;1.16;7.00;33.08;-6.13;5.75;-17.26;-20.85
0.37;-0.08;1.12;0.68;28.09;-13.23;5.59;-16.51;-21.21
0.44;-0.09;1.12;-10.91;17.93;-31.35;5.11;-16.09;-22.09
0.32;-0.10;1.19;-28.74;-0.97;-50.72;4.19;-16.07;-23.41
0.22;-0.10;1.27;-29.52;-3.87;-52.86;3.22;-16.03;-24.89
0.19;-0.12;1.28;-29.87;-4.45;-49.06;2.31;-15.97;-26.16
0.25;-0.11;1.31;-23.80;-7.20;-55.26;1.52;-16.05;-27.71
0.19;-0.09;1.24;-24.85;-9.93;-54.89;0.77;-16.16;-29.19
0.28;-0.07;1.17;-22.91;3.37;-39.72;0.09;-16.00;-30.26
0.42;-0.09;1.19;-10.85;4.56;-73.29;-0.40;-15.87;-33.20
0.19;-0.04;1.11;5.55;10.83;-98.80;-0.28;-15.44;-35.96
-0.01;0.05;1.03;-12.71;7.40;-72.33;-0.55;-14.93;-37.91
0.08;0.05;1.19;-7.81;16.65;-46.95;-0.69;-14.27;-39.14
0.11;0.05;1.22;26.98;32.33;-46.43;0.07;-13.23;-40.39
0.05;0.06;1.04;29.70;35.64;-49.91;0.92;-12.08;-41.74
0.00;0.11;1.19;12.60;9.80;-32.19;1.32;-11.59;-42.57
0.07;0.06;1.19;35.29;21.78;-47.58;2.28;-10.84;-43.86
-0.03;0.12;1.01;49.40;20.70;-52.77;3.62;-10.07;-45.23
-0.10;0.17;0.94;17.03;-14.33;-26.85;4.24;-10.18;-46.04
0.01;0.14;1.02;8.01;-1.11;-11.91;4.52;-10.02;-46.37
0.13;0.10;1.04;-0.16;1.02;-27.06;4.52;-9.93;-47.07
0.05;0.09;1.08;-2.30;-13.58;-39.27;4.46;-10.14;-48.13
-0.06;0.13;1.06;-1.55;5.19;-13.49;4.46;-9.74;-48.50
0.08;0.06;1.09;-8.07;-10.13;-2.54;4.22;-9.89;-48.57
0.19;0.08;1.04;5.62;18.33;-4.40;4.49;-8.95;-48.79
0.14;0.09;1.07;-11.78;6.21;-9.75;4.17;-8.75;-49.06
0.12;0.08;1.15;-4.99;1.17;-5.03;4.03;-8.65;-49.19
0.08;0.07;1.11;-13.67;7.69;-5.33;3.67;-8.36;-49.33
0.15;0.04;1.20;-22.80;10.04;3.51;2.94;-8.03;-49.22
0.15;0.02;1.19;-10.97;6.59;-1.68;2.61;-7.83;-49.27
0.15;0.01;1.19;-9.51;7.23;-3.97;2.31;-7.63;-49.38
0.11;0.03;1.20;-1.57;0.85;-7.04;2.26;-7.56;-49.57
0.08;0.05;1.11;8.01;12.45;2.50;2.47;-7.15;-49.50
0.15;0.06;1.09;1.49;8.76;14.12;2.51;-6.94;-49.13
0.17;0.04;1.11;-5.78;3.48;2.90;2.34;-6.87;-49.05
0.11;0.07;1.10;-6.97;6.57;-3.14;2.18;-6.67;-49.14
0.11;0.07;1.11;-10.30;3.20;6.86;1.94;-6.56;-48.96
0.16;0.04;1.16;-8.06;11.37;5.60;1.72;-6.28;-48.81
0.11;0.04;1.14;-6.02;1.95;-2.33;1.54;-6.20;-48.88
0.06;0.08;1.14;-5.46;6.25;0.97;1.44;-5.97;-48.86
0.04;0.10;1.09;0.10;19.00;12.07;1.51;-5.37;-48.52
0.15;0.08;1.15;-7.28;12.57;14.01;1.37;-5.08;-48.15
0.07;0.12;1.14;-3.66;4.18;3.32;1.36;-4.93;-48.06
-0.01;0.15;1.11;-1.48;10.56;13.80;1.45;-4.53;-47.68
-0.00;0.18;1.11;-0.13;14.97;30.96;1.60;-4.06;-46.87
0.00;0.19;1.14;5.90;18.12;38.13;1.92;-3.49;-45.81
0.01;0.21;1.13;-3.14;10.96;45.58;2.00;-3.14;-44.57
-0.01;0.23;1.17;-6.56;6.64;55.92;2.01;-2.90;-43.12
0.00;0.20;1.19;5.44;13.64;74.85;2.32;-2.44;-40.88
0.05;0.18;1.16;13.33;11.23;77.99;2.81;-2.13;-38.69
-0.00;0.20;1.10;20.42;12.13;80.74;3.48;-1.77;-36.59
-0.04;0.20;1.04;15.72;18.33;90.82;4.04;-1.22;-34.14
-0.02;0.16;1.04;5.00;7.02;104.83;4.26;-0.99;-31.31
0.01;0.12;1.13;14.11;7.31;114.42;4.66;-0.80;-28.33
0.03;0.09;1.07;30.94;24.65;121.45;5.50;-0.13;-24.93
0.03;0.05;1.07;28.37;15.32;118.96;6.17;0.24;-21.84
0.01;0.01;1.06;22.48;9.55;123.60;6.67;0.48;-18.38
0.08;-0.04;1.08;24.22;16.22;130.65;7.14;0.82;-14.85
0.13;-0.07;1.07;17.79;22.25;121.15;7.45;1.32;-11.22
0.14;-0.11;1.09;4.89;17.41;106.96;7.33;1.62;-8.33
0.12;-0.13;1.12;6.95;15.60;94.12;7.24;1.90;-5.79
0.11;-0.14;1.10;2.51;19.92;88.35;7.03;2.27;-3.49
0.10;-0.15;1.10;-1.35;34.57;85.89;6.71;3.08;-1.09
0.13;-0.16;1.14;-4.99;25.98;75.81;6.30;3.59;0.96
0.14;-0.15;1.13;-14.53;13.15;60.45;5.66;3.74;2.59
0.11;-0.14;1.13;-27.69;1.31;53.89;4.68;3.60;4.05
0.12;-0.16;1.23;-21.63;6.80;43.26;3.91;3.60;5.17
0.06;-0.14;1.16;-18.02;9.34;36.99;3.24;3.71;6.13
0.09;-0.13;1.20;-27.23;3.32;33.34;2.23;3.66;7.17
0.08;-0.13;1.25;-21.96;7.60;22.32;1.52;3.71;7.75
0.05;-0.11;1.25;-11.35;17.14;21.84;1.09;4.04;8.34
0.08;-0.11;1.25;-4.25;7.61;19.55;0.86;4.10;8.86
0.07;-0.11;1.19;3.96;3.86;12.33;0.85;4.05;9.19
0.05;-0.10;1.14;-7.46;1.37;10.50;0.54;3.96;9.47
0.10;-0.09;1.19;-8.93;-3.61;3.03;0.20;3.69;9.55
0.08;-0.09;1.15;10.60;-18.42;-8.04;0.39;3.08;9.34
0.07;-0.08;1.01;10.72;-23.01;-10.07;0.57;2.34;9.07
0.06;-0.05;1.02;5.23;-20.25;-5.38;0.65;1.67;8.92
0.06;-0.03;1.01;40.83;-7.58;0.76;1.77;1.36;8.94
-0.01;-0.02;0.82;52.57;9.67;10.62;3.15;1.61;9.24
0.09;-0.03;0.80;13.43;-1.15;7.77;3.40;1.41;9.45
0.23;-0.09;0.87;-5.08;-33.26;-18.98;3.11;0.26;8.96
-0.04;-0.11;0.98;-12.80;11.66;-13.36;2.27;0.90;8.26
0.05;-0.08;1.06;9.96;57.40;-2.95;2.42;2.40;8.18
0.16;-0.06;0.83;34.31;76.01;-17.62;3.21;4.15;7.70
0.17;-0.07;0.71;-4.21;53.99;-41.06;2.95;5.20;6.64
-0.01;-0.02;0.78;-55.89;33.57;-55.78;1.32;6.02;5.08
-0.09;-0.00;1.13;-46.35;61.72;-16.14;0.07;7.63;4.64
0.02;-0.07;1.06;22.62;102.33;-7.87;0.85;11.37;4.33
0.07;-0.09;0.92;-19.28;71.58;-32.46;0.20;13.02;3.42
0.04;-0.06;1.20;-66.71;37.77;-70.71;-1.62;13.73;1.51
-0.14;-0.03;1.23;-62.94;31.29;-78.57;-3.28;14.41;-0.61
-0.13;-0.01;1.23;-48.13;57.92;-58.78;-4.50;15.77;-2.19
-0.06;-0.08;1.23;-35.12;90.82;-63.94;-5.45;18.00;-3.98
-0.26;-0.06;1.22;-49.09;83.81;-72.54;-6.64;20.00;-5.87
-0.34;-0.02;1.44;-94.41;97.72;-44.88;-9.11;22.54;-7.13
-0.24;-0.09;1.61;-71.48;67.64;-55.18;-10.87;24.05;-8.62
-0.50;-0.03;1.51;-68.51;59.60;-28.80;-12.69;25.68;-9.48
-0.42;-0.03;1.68;-54.94;61.93;8.35;-13.90;27.08;-9.26
-1.32;0.25;2.00;243.56;-501.26;112.99;-6.86;13.39;-6.09
-0.28;0.18;1.38;7.03;-110.83;10.86;-6.42;10.50;-5.81
-0.21;-0.02;1.08;-7.77;-3.35;45.25;-6.52;10.42;-4.54
-0.04;-0.12;0.82;2.05;-61.23;23.49;-6.50;8.69;-3.93
-0.21;-0.26;1.33;98.52;-159.11;13.77;-3.86;4.30;-3.55
0.06;-0.14;1.22;78.30;-142.80;27.15;-1.83;0.39;-2.81
0.03;-0.08;1.19;42.74;-43.87;11.41;-0.74;-0.81;-2.51
-0.03;-0.06;1.12;40.48;-52.17;9.28;0.29;-2.14;-2.25
-0.10;-0.06;1.31;47.33;-101.87;27.23;1.67;-5.11;-1.41
-0.01;-0.00;1.16;29.12;-48.88;18.27;2.40;-6.30;-0.92
0.02;-0.07;1.18;9.30;3.37;7.75;2.53;-6.10;-0.71
0.04;-0.05;1.16;6.65;3.87;3.69;2.61;-5.91;-0.61
0.04;-0.02;1.15;5.99;4.44;-0.91;2.68;-5.72;-0.63
0.03;-0.05;1.15;7.90;2.57;-8.72;2.80;-5.57;-0.87
-0.01;-0.04;1.14;7.64;6.36;-6.59;2.90;-5.28;-1.05
0.04;-0.04;1.13;10.01;8.35;-0.43;3.05;-5.00;-1.06
0.04;-0.03;1.14;19.55;4.27;4.94;3.48;-4.82;-0.92
0.02;-0.03;1.15;11.93;-6.36;1.87;3.70;-4.91;-0.87
0.04;-0.01;1.12;0.27;-4.42;0.16;3.62;-4.98;-0.87
0.02;-0.02;1.16;-0.04;-2.92;0.13;3.53;-4.98;-0.86
0.02;-0.02;1.15;0.33;-6.94;0.27;3.44;-5.08;-0.86
0.02;-0.02;1.16;-0.04;-2.36;-0.17;3.35;-5.06;-0.86
0.02;-0.02;1.15;-0.22;-3.03;0.18;3.26;-5.06;-0.86
0.05;-0.02;1.11;-0.39;1.11;0.28;3.16;-4.98;-0.85
0.02;-0.02;1.14;-0.42;-2.60;0.21;3.06;-4.97;-0.84
0.02;-0.02;1.14;-0.38;-1.82;0.07;2.97;-4.95;-0.84
-0.01;-0.01;1.19;-1.37;-4.97;0.07;2.87;-4.97;-0.84
0.02;-0.03;1.15;0.28;-0.13;-0.05;2.79;-4.89;-0.84
0.03;-0.01;1.14;0.14;0.68;0.09;2.72;-4.80;-0.84
0.02;-0.02;1.15;0.51;1.02;0.47;2.67;-4.69;-0.83
0.03;-0.03;1.15;0.04;0.47;0.10;2.59;-4.62;-0.82
0.03;-0.02;1.12;-0.07;-0.01;0.12;2.51;-4.55;-0.82
0.00;-0.02;1.18;-2.36;-11.84;0.59;2.38;-4.77;-0.80
0.03;-0.02;1.14;0.52;1.75;-0.16;2.33;-4.66;-0.81
0.02;-0.02;1.15;-0.28;-1.62;0.07;2.26;-4.63;-0.81
0.02;-0.02;1.15;0.27;0.06;0.13;2.20;-4.55;-0.80
0.02;-0.02;1.15;0.01;0.12;0.33;2.14;-4.47;-0.79
0.03;-0.03;1.15;0.05;0.36;0.07;2.07;-4.40;-0.79
0.02;-0.02;1.15;0.31;0.01;-0.05;2.02;-4.33;-0.79
0.02;-0.02;1.15;-0.41;-0.07;0.06;1.95;-4.27;-0.79
0.02;-0.02;1.14;-0.10;-0.14;0.04;1.89;-4.21;-0.79
0.03;-0.02;1.15;0.14;0.31;0.09;1.83;-4.15;-0.79
0.02;-0.03;1.15;-0.25;-0.27;-0.14;1.76;-4.09;-0.79
0.02;-0.02;1.15;-0.15;0.07;0.15;1.70;-4.03;-0.79
0.03;-0.02;1.15;-0.16;0.39;-0.11;1.65;-3.97;-0.79
0.02;-0.02;1.14;0.05;0.27;-0.19;1.60;-3.90;-0.80
0.03;-0.02;1.14;0.22;0.44;-0.40;1.55;-3.84;-0.81
0.02;-0.02;1.14;0.01;0.28;0.04;1.50;-3.78;-0.81
0.02;-0.02;1.14;0.14;-0.07;-0.26;1.46;-3.72;-0.81
0.03;-0.02;1.15;-0.04;0.22;0.09;1.40;-3.67;-0.81
0.02;-0.02;1.15;-0.19;0.33;0.06;1.35;-3.61;-0.81
0.03;-0.02;1.14;0.04;-0.02;0.13;1.31;-3.56;-0.81
0.03;-0.01;1.14;-0.18;-0.14;-0.48;1.26;-3.53;-0.82
0.02;-0.02;1.15;0.01;0.16;0.36;1.22;-3.47;-0.81
0.02;-0.02;1.15;-0.18;0.10;-0.16;1.17;-3.43;-0.82
0.02;-0.02;1.15;-0.13;-0.17;-0.01;1.12;-3.38;-0.82
0.02;-0.02;1.14;0.19;-0.10;-0.26;1.08;-3.34;-0.82
0.03;-0.02;1.15;-0.15;-0.01;0.15;1.04;-3.30;-0.82
0.02;-0.02;1.15;-0.27;-0.63;-0.13;0.99;-3.27;-0.82
0.03;-0.02;1.15;0.17;-0.31;-0.07;0.96;-3.24;-0.82
0.03;-0.02;1.14;0.07;-0.20;-0.19;0.92;-3.21;-0.83
0.02;-0.02;1.15;-0.33;-1.07;-0.05;0.87;-3.20;-0.83
0.02;-0.02;1.15;-0.06;-0.52;0.10;0.84;-3.17;-0.83
0.03;-0.02;1.15;0.20;0.22;0.33;0.81;-3.13;-0.82
0.02;-0.02;1.15;-0.45;-4.27;0.13;0.76;-3.20;-0.82
0.03;-0.02;1.14;0.54;2.80;-0.14;0.74;-3.08;-0.82
0.03;-0.02;1.14;0.27;0.85;-0.04;0.71;-3.03;-0.82
0.02;-0.02;1.15;0.01;-1.17;-0.11;0.68;-3.02;-0.82
0.02;-0.02;1.17;0.17;1.72;-0.13;0.65;-2.91;-0.83
0.03;-0.02;1.14;-0.19;-0.46;-0.46;0.61;-2.90;-0.84
0.02;-0.02;1.15;0.52;1.96;0.07;0.60;-2.81;-0.84
0.03;-0.02;1.14;-0.18;0.53;0.28;0.56;-2.77;-0.83
0.02;-0.01;1.14;0.36;0.48;0.25;0.54;-2.73;-0.82
0.02;-0.02;1.16;-0.02;-0.72;0.07;0.52;-2.71;-0.82
0.02;-0.02;1.17;-0.13;-1.90;-0.16;0.49;-2.73;-0.83
0.02;-0.02;1.15;-0.36;-1.27;0.16;0.45;-2.72;-0.82
0.03;-0.02;1.14;-0.45;-0.14;-0.11;0.41;-2.70;-0.83
0.03;-0.02;1.15;0.16;1.43;-0.23;0.39;-2.64;-0.83
0.02;-0.02;1.14;-0.38;-0.77;-0.14;0.35;-2.63;-0.84
0.03;-0.02;1.14;0.16;1.34;0.30;0.33;-2.56;-0.83
0.03;-0.02;1.15;0.25;-0.17;-0.04;0.31;-2.55;-0.83
0.03;-0.03;1.15;0.17;0.09;-0.13;0.28;-2.52;-0.83
0.02;-0.02;1.15;-0.28;0.38;0.13;0.25;-2.49;-0.83
0.03;-0.03;1.13;-0.21;0.22;-0.30;0.21;-2.46;-0.84
0.02;-0.02;1.17;-0.35;0.35;-0.17;0.18;-2.42;-0.84
0.02;-0.02;1.13;-0.24;-1.75;0.32;0.15;-2.44;-0.83
0.03;-0.02;1.15;-0.31;-0.13;-0.08;0.12;-2.42;-0.83
0.05;-0.02;1.14;5.26;22.54;-0.72;0.23;-1.81;-0.85
-0.01;-0.01;1.23;-2.93;-17.15;10.42;0.14;-2.21;-0.57
-0.10;0.02;1.28;-0.96;1.02;-1.39;0.13;-2.05;-0.62
0.02;-0.02;1.16;0.16;-0.65;0.21;0.11;-2.05;-0.61
0.01;-0.02;1.17;-0.35;-0.51;0.04;0.08;-2.03;-0.61
0.03;-0.02;1.14;-0.12;-0.13;0.07;0.05;-2.02;-0.61
0.03;-0.02;1.14;-0.27;0.02;-0.02;0.02;-2.01;-0.61
0.03;-0.03;1.13;0.45;-0.34;-0.10;0.01;-2.01;-0.61
0.02;-0.02;1.15;0.23;-1.06;-0.16;-0.01;-2.02;-0.61
0.01;-0.02;1.16;0.75;1.29;-0.13;-0.01;-1.96;-0.62
0.01;-0.01;1.15;0.83;4.50;-0.26;0.02;-1.71;-0.63
0.01;-0.03;1.15;0.02;-0.86;0.42;-0.01;-1.72;-0.62
0.03;-0.01;1.15;0.07;-3.03;-0.25;-0.02;-1.80;-0.63
0.03;-0.02;1.14;1.17;4.50;0.18;-0.01;-1.68;-0.62
0.02;-0.02;1.14;0.72;4.44;0.42;-0.01;-1.54;-0.61
0.02;-0.02;1.15;-0.18;0.54;0.18;-0.03;-1.51;-0.60
0.01;-0.02;1.15;1.12;2.93;0.07;-0.02;-1.41;-0.60
0.03;-0.02;1.15;0.34;1.89;-0.23;-0.03;-1.36;-0.61
0.02;-0.02;1.14;-1.00;-1.04;-0.33;-0.07;-1.37;-0.62
0.02;-0.02;1.14;0.04;1.22;0.01;-0.08;-1.33;-0.62
0.02;-0.01;1.15;-0.21;-2.78;-0.39;-0.10;-1.40;-0.63
0.02;-0.02;1.14;0.22;-0.19;-0.17;-0.11;-1.39;-0.63
0.01;-0.01;1.15;0.28;0.57;0.07;-0.11;-1.36;-0.63
0.01;-0.02;1.15;-0.57;-1.87;0.06;-0.14;-1.40;-0.63
0.03;-0.02;1.14;0.07;0.27;0.13;-0.15;-1.39;-0.63
0.02;-0.02;1.15;0.36;-0.19;0.07;-0.16;-1.39;-0.62
0.02;-0.02;1.15;1.91;6.01;-0.37;-0.12;-1.23;-0.63
0.01;-0.02;1.15;1.12;2.91;0.09;-0.11;-1.14;-0.63
0.01;-0.02;1.15;-0.68;-3.64;0.28;-0.14;-1.22;-0.62
0.02;-0.02;1.14;-0.62;-3.01;0.42;-0.17;-1.29;-0.61
0.02;-0.03;1.14;1.00;3.38;0.06;-0.17;-1.20;-0.61
0.01;-0.02;1.15;-0.24;-0.68;-0.28;-0.19;-1.20;-0.62
0.01;-0.02;1.15;-0.64;-1.18;0.18;-0.23;-1.23;-0.61
0.01;-0.02;1.15;-0.31;-1.21;0.03;-0.25;-1.25;-0.61
0.02;-0.02;1.13;0.13;0.39;-0.17;-0.26;-1.23;-0.62
0.01;-0.02;1.15;-0.44;-0.08;-0.10;-0.29;-1.22;-0.62
0.02;-0.02;1.15;-0.35;-0.56;0.21;-0.31;-1.24;-0.61
0.02;-0.02;1.15;-0.27;-1.38;-0.01;-0.33;-1.27;-0.61
0.02;-0.01;1.14;-0.51;-1.52;0.10;-0.36;-1.31;-0.61
0.02;-0.02;1.15;-0.48;-1.21;0.19;-0.38;-1.33;-0.61
0.03;-0.02;1.15;0.33;0.99;-0.13;-0.38;-1.31;-0.61
0.02;-0.01;1.15;1.36;3.49;-0.28;-0.35;-1.20;-0.62
0.02;-0.02;1.15;-0.39;-1.09;0.09;-0.37;-1.22;-0.61
0.02;-0.02;1.15;-0.35;-1.07;0.38;-0.39;-1.25;-0.60
0.03;-0.02;1.14;0.97;3.35;0.27;-0.38;-1.16;-0.60
0.02;-0.02;1.15;-0.06;-0.13;0.21;-0.39;-1.16;-0.59
0.02;-0.02;1.15;-0.70;-2.02;-0.07;-0.42;-1.20;-0.59
